Indices,acc,mt,rew,rt,seq,subject,trial_num
1,1,1519.0,05,327.0,A,104,1
3,1,1487.0,05,271.0,A,104,4
5,1,1507.0,05,311.0,A,104,19
7,1,1352.0,05,309.0,A,104,31
9,1,1362.0,05,309.0,A,104,37
11,1,1374.0,05,281.0,A,104,44
13,1,1283.0,05,292.0,A,104,88
15,1,1484.0,05,329.0,A,104,120
17,1,1335.0,05,250.0,A,104,122
19,1,1240.0,05,268.0,A,104,123
21,1,1432.0,05,351.0,A,104,131
23,1,1385.0,05,259.0,A,104,156
25,1,1467.0,05,338.0,A,104,167
27,1,1519.0,05,273.0,A,104,198
29,1,1350.0,05,303.0,A,104,207
32,1,1476.0,10,321.0,A,104,7
34,1,1475.0,10,305.0,A,104,13
36,1,1426.0,10,317.0,A,104,28
38,1,1306.0,10,280.0,A,104,34
40,1,1413.0,10,330.0,A,104,51
42,1,1512.0,10,379.0,A,104,54
44,1,1420.0,10,375.0,A,104,55
46,1,1276.0,10,262.0,A,104,68
48,1,1424.0,10,364.0,A,104,137
50,1,1412.0,10,309.0,A,104,138
52,1,1381.0,10,277.0,A,104,146
55,1,1470.0,30,367.0,A,104,33
57,1,1361.0,30,267.0,A,104,49
59,1,1415.0,30,324.0,A,104,59
61,1,1311.0,30,279.0,A,104,69
63,1,1287.0,30,315.0,A,104,78
65,1,1344.0,30,311.0,A,104,127
67,1,1381.0,30,299.0,A,104,129
69,1,1330.0,30,277.0,A,104,136
71,1,1490.0,30,307.0,A,104,145
73,1,1369.0,30,277.0,A,104,151
75,1,1531.0,30,367.0,A,104,161
77,1,1329.0,30,310.0,A,104,182
79,1,1496.0,30,285.0,A,104,190
81,1,1447.0,30,278.0,A,104,192
83,1,1416.0,30,304.0,A,104,199
85,1,1351.0,30,302.0,A,104,225
88,1,1534.0,05,307.0,B,104,9
90,1,1426.0,05,281.0,B,104,18
92,1,1727.0,05,371.0,B,104,24
94,1,1453.0,05,326.0,B,104,32
96,1,1502.0,05,285.0,B,104,36
98,1,1701.0,05,285.0,B,104,43
100,1,1521.0,05,282.0,B,104,46
102,1,1422.0,05,392.0,B,104,77
104,1,1412.0,05,327.0,B,104,85
106,1,1340.0,05,271.0,B,104,128
108,1,1489.0,05,312.0,B,104,134
110,1,1544.0,05,411.0,B,104,152
112,1,1467.0,05,371.0,B,104,165
114,1,1554.0,05,305.0,B,104,169
116,1,1588.0,05,297.0,B,104,181
118,1,1412.0,05,327.0,B,104,187
120,1,1445.0,05,309.0,B,104,191
122,1,1679.0,05,285.0,B,104,205
124,1,1299.0,05,311.0,B,104,210
126,1,1330.0,05,325.0,B,104,237
128,1,1251.0,05,282.0,B,104,239
131,1,1648.0,10,330.0,B,104,10
133,1,1633.0,10,340.0,B,104,17
135,1,1543.0,10,304.0,B,104,26
137,1,1662.0,10,284.0,B,104,40
139,1,1524.0,10,315.0,B,104,42
141,1,1430.0,10,280.0,B,104,45
143,1,1316.0,10,279.0,B,104,50
145,1,1341.0,10,274.0,B,104,53
147,1,1229.0,10,270.0,B,104,63
149,1,1390.0,10,300.0,B,104,72
151,1,1328.0,10,329.0,B,104,80
153,1,1380.0,10,338.0,B,104,87
155,1,1390.0,10,289.0,B,104,125
157,1,1668.0,10,343.0,B,104,133
159,1,1715.0,10,374.0,B,104,147
161,1,1593.0,10,357.0,B,104,150
163,1,1642.0,10,320.0,B,104,158
165,1,1630.0,10,432.0,B,104,162
167,1,1355.0,10,366.0,B,104,172
169,1,1758.0,10,611.0,B,104,174
171,1,1328.0,10,286.0,B,104,188
173,1,1692.0,10,673.0,B,104,195
175,1,1449.0,10,285.0,B,104,197
177,1,1486.0,10,307.0,B,104,206
179,1,1320.0,10,341.0,B,104,208
182,1,1666.0,30,329.0,B,104,6
184,1,1538.0,30,333.0,B,104,11
186,1,1748.0,30,310.0,B,104,14
188,1,1535.0,30,315.0,B,104,29
190,1,1423.0,30,268.0,B,104,48
192,1,1552.0,30,395.0,B,104,52
194,1,1621.0,30,414.0,B,104,57
196,1,1469.0,30,323.0,B,104,58
198,1,1384.0,30,293.0,B,104,86
200,1,1433.0,30,294.0,B,104,121
202,1,1732.0,30,576.0,B,104,141
204,1,1675.0,30,456.0,B,104,142
206,1,1754.0,30,634.0,B,104,149
208,1,1657.0,30,390.0,B,104,160
210,1,1616.0,30,522.0,B,104,164
212,1,1345.0,30,357.0,B,104,179
214,1,1331.0,30,350.0,B,104,189
216,1,1652.0,30,362.0,B,104,194
218,1,1380.0,30,337.0,B,104,201
221,0,1318.0,05,293.0,A,104,12
223,0,1426.0,05,365.0,A,104,25
225,0,1416.0,05,315.0,A,104,30
227,0,1466.0,05,310.0,A,104,47
229,0,762.0,05,292.0,A,104,65
231,0,640.0,05,296.0,A,104,75
233,0,1261.0,05,353.0,A,104,76
235,0,658.0,05,286.0,A,104,84
237,0,1367.0,05,284.0,A,104,135
239,0,1494.0,05,499.0,A,104,168
241,0,1410.0,05,392.0,A,104,170
243,0,1320.0,05,508.0,A,104,176
245,0,623.0,05,289.0,A,104,183
247,0,1442.0,05,307.0,A,104,193
249,0,1459.0,05,355.0,A,104,200
251,0,1284.0,05,299.0,A,104,218
253,0,1256.0,05,253.0,A,104,219
255,0,1182.0,05,343.0,A,104,223
257,0,1291.0,05,367.0,A,104,233
259,0,1304.0,05,293.0,A,104,235
262,0,1511.0,10,519.0,A,104,20
264,0,0.0,10,356.0,A,104,23
266,0,1492.0,10,268.0,A,104,41
268,0,1190.0,10,309.0,A,104,73
270,0,1254.0,10,302.0,A,104,74
272,0,754.0,10,334.0,A,104,82
274,0,1237.0,10,413.0,A,104,83
276,0,1313.0,10,0.0,A,104,126
278,0,695.0,10,293.0,A,104,132
280,0,1445.0,10,742.0,A,104,154
282,0,1393.0,10,762.0,A,104,163
284,0,1398.0,10,363.0,A,104,166
286,0,1286.0,10,325.0,A,104,171
288,0,1392.0,10,733.0,A,104,177
290,0,1257.0,10,280.0,A,104,184
292,0,1433.0,10,338.0,A,104,186
294,0,724.0,10,304.0,A,104,196
296,0,1053.0,10,289.0,A,104,202
298,0,1438.0,10,287.0,A,104,204
300,0,640.0,10,264.0,A,104,212
302,0,1283.0,10,310.0,A,104,217
304,0,1253.0,10,343.0,A,104,224
306,0,1221.0,10,288.0,A,104,228
308,0,623.0,10,296.0,A,104,238
311,0,1378.0,30,434.0,A,104,2
313,0,1343.0,30,336.0,A,104,3
315,0,1470.0,30,321.0,A,104,15
317,0,1515.0,30,349.0,A,104,21
319,0,969.0,30,323.0,A,104,27
321,0,769.0,30,296.0,A,104,35
323,0,610.0,30,293.0,A,104,39
325,0,1295.0,30,300.0,A,104,66
327,0,1314.0,30,411.0,A,104,79
329,0,1262.0,30,273.0,A,104,89
331,0,1144.0,30,355.0,A,104,143
333,0,1335.0,30,311.0,A,104,155
335,0,1214.0,30,301.0,A,104,159
337,0,1419.0,30,388.0,A,104,175
339,0,1375.0,30,671.0,A,104,203
341,0,1268.0,30,275.0,A,104,213
343,0,1063.0,30,425.0,A,104,216
345,0,1337.0,30,235.0,A,104,220
347,0,1342.0,30,302.0,A,104,236
350,0,1735.0,05,301.0,B,104,0
352,0,1560.0,05,353.0,B,104,8
354,0,430.0,05,328.0,B,104,56
356,0,1338.0,05,283.0,B,104,61
358,0,1213.0,05,286.0,B,104,64
360,0,1402.0,05,331.0,B,104,81
362,0,1471.0,05,970.0,B,104,130
364,0,1651.0,05,675.0,B,104,139
366,0,1629.0,05,583.0,B,104,140
368,0,594.0,05,339.0,B,104,173
370,0,1079.0,05,362.0,B,104,178
372,0,493.0,05,273.0,B,104,185
374,0,357.0,05,357.0,B,104,215
376,0,1049.0,05,321.0,B,104,231
379,0,1742.0,10,327.0,B,104,16
381,0,1293.0,10,350.0,B,104,22
383,0,1313.0,10,365.0,B,104,70
385,0,0.0,10,300.0,B,104,144
387,0,1569.0,10,698.0,B,104,148
389,0,1288.0,10,397.0,B,104,211
391,0,923.0,10,382.0,B,104,222
393,0,900.0,10,501.0,B,104,226
395,0,1299.0,10,310.0,B,104,227
397,0,997.0,10,444.0,B,104,234
400,0,1598.0,30,395.0,B,104,5
402,0,1659.0,30,350.0,B,104,38
404,0,1259.0,30,310.0,B,104,60
406,0,1295.0,30,308.0,B,104,62
408,0,1328.0,30,303.0,B,104,67
410,0,1276.0,30,339.0,B,104,71
412,0,1713.0,30,350.0,B,104,124
414,0,0.0,30,373.0,B,104,153
416,0,1449.0,30,318.0,B,104,157
418,0,980.0,30,334.0,B,104,180
420,0,1635.0,30,678.0,B,104,209
422,0,1261.0,30,310.0,B,104,214
424,0,1235.0,30,317.0,B,104,221
426,0,1208.0,30,382.0,B,104,229
428,0,1183.0,30,720.0,B,104,230
430,0,385.0,30,385.0,B,104,232
1,1,1641.0,05,288.0,A,105,4
3,1,1644.0,05,297.0,A,105,25
5,1,1679.0,05,288.0,A,105,30
7,1,1579.0,05,313.0,A,105,37
9,1,1584.0,05,254.0,A,105,44
11,1,1467.0,05,282.0,A,105,88
13,1,1428.0,05,305.0,A,105,97
15,1,1534.0,05,273.0,A,105,123
17,1,1504.0,05,263.0,A,105,131
19,1,1508.0,05,278.0,A,105,135
21,1,1674.0,05,299.0,A,105,156
23,1,1521.0,05,268.0,A,105,168
25,1,1421.0,05,248.0,A,105,170
27,1,1609.0,05,291.0,A,105,176
29,1,1612.0,05,312.0,A,105,193
31,1,1546.0,05,271.0,A,105,200
33,1,1414.0,05,269.0,A,105,218
35,1,1490.0,05,280.0,A,105,219
37,1,1498.0,05,267.0,A,105,223
39,1,1508.0,05,300.0,A,105,233
42,1,1751.0,10,269.0,A,105,7
44,1,1603.0,10,289.0,A,105,20
46,1,1621.0,10,285.0,A,105,28
48,1,1682.0,10,283.0,A,105,34
50,1,1505.0,10,238.0,A,105,41
52,1,1636.0,10,318.0,A,105,51
54,1,1613.0,10,273.0,A,105,54
56,1,1647.0,10,287.0,A,105,55
58,1,1340.0,10,259.0,A,105,92
60,1,1288.0,10,276.0,A,105,93
62,1,1663.0,10,273.0,A,105,126
64,1,1641.0,10,263.0,A,105,132
66,1,1535.0,10,334.0,A,105,137
68,1,1420.0,10,263.0,A,105,138
70,1,1700.0,10,287.0,A,105,154
72,1,1595.0,10,317.0,A,105,184
74,1,1628.0,10,288.0,A,105,186
76,1,1568.0,10,346.0,A,105,196
78,1,1443.0,10,241.0,A,105,202
80,1,1536.0,10,309.0,A,105,204
82,1,1470.0,10,279.0,A,105,212
84,1,1524.0,10,308.0,A,105,224
86,1,1551.0,10,265.0,A,105,228
88,1,1378.0,10,288.0,A,105,238
91,1,1721.0,30,288.0,A,105,2
93,1,1663.0,30,284.0,A,105,3
95,1,1745.0,30,308.0,A,105,15
97,1,1584.0,30,284.0,A,105,21
99,1,1528.0,30,271.0,A,105,35
101,1,1680.0,30,342.0,A,105,39
103,1,1637.0,30,259.0,A,105,59
105,1,1324.0,30,246.0,A,105,98
107,1,1396.0,30,258.0,A,105,103
109,1,1513.0,30,290.0,A,105,127
111,1,1381.0,30,228.0,A,105,129
113,1,1446.0,30,326.0,A,105,136
115,1,1530.0,30,259.0,A,105,143
117,1,1587.0,30,271.0,A,105,159
119,1,1607.0,30,307.0,A,105,175
121,1,1584.0,30,283.0,A,105,190
123,1,1434.0,30,281.0,A,105,192
125,1,1500.0,30,269.0,A,105,199
127,1,1434.0,30,292.0,A,105,203
129,1,1385.0,30,287.0,A,105,216
131,1,1408.0,30,260.0,A,105,220
133,1,1553.0,30,512.0,A,105,225
135,1,1371.0,30,258.0,A,105,236
138,1,2074.0,05,283.0,B,105,8
140,1,1982.0,05,282.0,B,105,9
142,1,1886.0,05,238.0,B,105,18
144,1,1947.0,05,241.0,B,105,24
146,1,2097.0,05,284.0,B,105,36
148,1,2007.0,05,246.0,B,105,43
150,1,1871.0,05,222.0,B,105,46
152,1,1698.0,05,260.0,B,105,56
154,1,1626.0,05,286.0,B,105,64
156,1,1543.0,05,306.0,B,105,117
158,1,1568.0,05,249.0,B,105,128
160,1,1533.0,05,254.0,B,105,130
162,1,1688.0,05,346.0,B,105,134
164,1,1851.0,05,265.0,B,105,140
166,1,1799.0,05,270.0,B,105,152
168,1,1536.0,05,260.0,B,105,165
170,1,1656.0,05,286.0,B,105,169
172,1,1580.0,05,241.0,B,105,173
174,1,1819.0,05,295.0,B,105,187
176,1,1455.0,05,202.0,B,105,191
178,1,1550.0,05,278.0,B,105,210
180,1,1525.0,05,268.0,B,105,215
182,1,1526.0,05,264.0,B,105,231
184,1,1538.0,05,276.0,B,105,237
186,1,1517.0,05,306.0,B,105,239
189,1,1950.0,10,235.0,B,105,10
191,1,1801.0,10,278.0,B,105,16
193,1,1787.0,10,245.0,B,105,26
195,1,1848.0,10,273.0,B,105,40
197,1,1983.0,10,299.0,B,105,42
199,1,1934.0,10,326.0,B,105,45
201,1,1892.0,10,281.0,B,105,50
203,1,1867.0,10,253.0,B,105,53
205,1,1748.0,10,245.0,B,105,63
207,1,1635.0,10,246.0,B,105,99
209,1,1646.0,10,247.0,B,105,118
211,1,1955.0,10,350.0,B,105,125
213,1,1841.0,10,370.0,B,105,133
215,1,1747.0,10,263.0,B,105,147
217,1,1891.0,10,266.0,B,105,148
219,1,1626.0,10,266.0,B,105,158
221,1,1681.0,10,284.0,B,105,162
223,1,1622.0,10,244.0,B,105,172
225,1,2071.0,10,264.0,B,105,188
227,1,1597.0,10,293.0,B,105,197
229,1,1558.0,10,269.0,B,105,206
231,1,1618.0,10,276.0,B,105,208
233,1,1457.0,10,281.0,B,105,211
235,1,1599.0,10,305.0,B,105,222
237,1,1406.0,10,295.0,B,105,227
239,1,1589.0,10,312.0,B,105,234
242,1,2112.0,30,248.0,B,105,11
244,1,1785.0,30,254.0,B,105,14
246,1,1974.0,30,252.0,B,105,38
248,1,1954.0,30,388.0,B,105,48
250,1,2054.0,30,282.0,B,105,52
252,1,1657.0,30,296.0,B,105,57
254,1,1786.0,30,253.0,B,105,58
256,1,1652.0,30,253.0,B,105,62
258,1,1532.0,30,271.0,B,105,94
260,1,1508.0,30,253.0,B,105,104
262,1,1741.0,30,262.0,B,105,106
264,1,1524.0,30,281.0,B,105,115
266,1,1506.0,30,286.0,B,105,121
268,1,1755.0,30,258.0,B,105,141
270,1,1628.0,30,279.0,B,105,142
272,1,1949.0,30,268.0,B,105,149
274,1,1764.0,30,354.0,B,105,153
276,1,1634.0,30,253.0,B,105,157
278,1,1744.0,30,303.0,B,105,160
280,1,1565.0,30,254.0,B,105,164
282,1,1574.0,30,308.0,B,105,179
284,1,1481.0,30,314.0,B,105,180
286,1,1822.0,30,330.0,B,105,189
288,1,1579.0,30,294.0,B,105,194
290,1,1460.0,30,276.0,B,105,201
292,1,1640.0,30,267.0,B,105,209
294,1,1638.0,30,291.0,B,105,214
296,1,1720.0,30,323.0,B,105,221
298,1,1787.0,30,286.0,B,105,232
301,0,1526.0,05,283.0,A,105,1
303,0,1744.0,05,273.0,A,105,12
305,0,1678.0,05,299.0,A,105,19
307,0,1711.0,05,396.0,A,105,31
309,0,1566.0,05,275.0,A,105,47
311,0,1406.0,05,274.0,A,105,65
313,0,1361.0,05,251.0,A,105,75
315,0,1344.0,05,267.0,A,105,76
317,0,1279.0,05,263.0,A,105,84
319,0,1432.0,05,321.0,A,105,108
321,0,1230.0,05,240.0,A,105,109
323,0,1250.0,05,261.0,A,105,113
325,0,1151.0,05,278.0,A,105,119
327,0,1279.0,05,272.0,A,105,120
329,0,1444.0,05,277.0,A,105,122
331,0,1471.0,05,316.0,A,105,167
333,0,1332.0,05,252.0,A,105,183
335,0,1030.0,05,286.0,A,105,198
337,0,1069.0,05,281.0,A,105,207
339,0,1532.0,05,437.0,A,105,235
342,0,1621.0,10,303.0,A,105,13
344,0,1661.0,10,312.0,A,105,23
346,0,1513.0,10,355.0,A,105,68
348,0,1408.0,10,279.0,A,105,73
350,0,1404.0,10,256.0,A,105,74
352,0,1262.0,10,248.0,A,105,82
354,0,1315.0,10,307.0,A,105,83
356,0,1438.0,10,234.0,A,105,101
358,0,1408.0,10,406.0,A,105,111
360,0,1298.0,10,297.0,A,105,114
362,0,1726.0,10,269.0,A,105,146
364,0,1683.0,10,428.0,A,105,163
366,0,1423.0,10,290.0,A,105,166
368,0,1171.0,10,253.0,A,105,171
370,0,1127.0,10,291.0,A,105,177
372,0,869.0,10,318.0,A,105,217
375,0,1472.0,30,267.0,A,105,27
377,0,1716.0,30,290.0,A,105,33
379,0,1651.0,30,237.0,A,105,49
381,0,1219.0,30,255.0,A,105,66
383,0,1448.0,30,273.0,A,105,69
385,0,1385.0,30,294.0,A,105,78
387,0,1384.0,30,334.0,A,105,79
389,0,1243.0,30,278.0,A,105,89
391,0,1423.0,30,302.0,A,105,90
393,0,1329.0,30,290.0,A,105,107
395,0,575.0,30,311.0,A,105,110
397,0,1649.0,30,291.0,A,105,145
399,0,1592.0,30,320.0,A,105,151
401,0,1642.0,30,330.0,A,105,155
403,0,1674.0,30,292.0,A,105,161
405,0,1467.0,30,274.0,A,105,182
407,0,838.0,30,261.0,A,105,213
410,0,2131.0,05,278.0,B,105,0
412,0,2060.0,05,253.0,B,105,32
414,0,1723.0,05,262.0,B,105,61
416,0,480.0,05,308.0,B,105,77
418,0,566.0,05,359.0,B,105,81
420,0,1549.0,05,282.0,B,105,85
422,0,1616.0,05,254.0,B,105,91
424,0,1174.0,05,382.0,B,105,95
426,0,0.0,05,348.0,B,105,102
428,0,894.0,05,245.0,B,105,116
430,0,459.0,05,251.0,B,105,139
432,0,1597.0,05,408.0,B,105,178
434,0,466.0,05,271.0,B,105,181
436,0,500.0,05,282.0,B,105,185
438,0,1224.0,05,248.0,B,105,205
441,0,549.0,10,326.0,B,105,17
443,0,1538.0,10,260.0,B,105,22
445,0,0.0,10,465.0,B,105,70
447,0,451.0,10,284.0,B,105,72
449,0,1687.0,10,289.0,B,105,80
451,0,1657.0,10,258.0,B,105,87
453,0,1690.0,10,347.0,B,105,96
455,0,1072.0,10,253.0,B,105,100
457,0,513.0,10,327.0,B,105,105
459,0,983.0,10,256.0,B,105,144
461,0,575.0,10,335.0,B,105,150
463,0,1760.0,10,301.0,B,105,174
465,0,947.0,10,599.0,B,105,195
467,0,957.0,10,297.0,B,105,226
470,0,1500.0,30,292.0,B,105,5
472,0,1381.0,30,282.0,B,105,6
474,0,1825.0,30,289.0,B,105,29
476,0,1704.0,30,279.0,B,105,60
478,0,1179.0,30,242.0,B,105,67
480,0,968.0,30,297.0,B,105,71
482,0,488.0,30,282.0,B,105,86
484,0,1116.0,30,280.0,B,105,112
486,0,555.0,30,303.0,B,105,124
488,0,932.0,30,263.0,B,105,229
490,0,1603.0,30,266.0,B,105,230
1,1,1230.0,05,288.0,A,106,25
3,1,1157.0,05,241.0,A,106,37
5,1,1203.0,05,240.0,A,106,44
7,1,1141.0,05,258.0,A,106,65
9,1,1198.0,05,255.0,A,106,76
11,1,1152.0,05,313.0,A,106,97
13,1,1183.0,05,252.0,A,106,119
15,1,1172.0,05,271.0,A,106,122
17,1,1192.0,05,248.0,A,106,123
19,1,1151.0,05,239.0,A,106,193
21,1,1147.0,05,252.0,A,106,198
23,1,1106.0,05,230.0,A,106,200
25,1,1195.0,05,268.0,A,106,218
27,1,1196.0,05,310.0,A,106,219
29,1,1188.0,05,255.0,A,106,235
32,1,1148.0,10,226.0,A,106,13
34,1,1130.0,10,271.0,A,106,28
36,1,1194.0,10,241.0,A,106,34
38,1,1208.0,10,247.0,A,106,51
40,1,1176.0,10,265.0,A,106,83
42,1,1181.0,10,226.0,A,106,93
44,1,1192.0,10,246.0,A,106,132
46,1,1111.0,10,263.0,A,106,137
48,1,1190.0,10,305.0,A,106,138
50,1,1144.0,10,267.0,A,106,146
52,1,1132.0,10,244.0,A,106,166
54,1,1223.0,10,250.0,A,106,171
56,1,1195.0,10,286.0,A,106,204
58,1,1158.0,10,265.0,A,106,217
60,1,1164.0,10,269.0,A,106,228
63,1,1228.0,30,276.0,A,106,15
65,1,1173.0,30,258.0,A,106,21
67,1,1206.0,30,268.0,A,106,27
69,1,1220.0,30,242.0,A,106,33
71,1,1174.0,30,281.0,A,106,59
73,1,1072.0,30,214.0,A,106,78
75,1,1208.0,30,262.0,A,106,136
77,1,1220.0,30,274.0,A,106,145
79,1,1182.0,30,274.0,A,106,159
81,1,1233.0,30,254.0,A,106,182
83,1,1123.0,30,240.0,A,106,192
85,1,1183.0,30,272.0,A,106,213
87,1,1117.0,30,339.0,A,106,236
90,1,1293.0,05,292.0,B,106,43
92,1,1292.0,05,266.0,B,106,46
94,1,1289.0,05,414.0,B,106,64
96,1,1203.0,05,261.0,B,106,77
98,1,1302.0,05,248.0,B,106,91
100,1,1161.0,05,293.0,B,106,139
102,1,1142.0,05,269.0,B,106,140
104,1,1231.0,05,237.0,B,106,152
106,1,1301.0,05,274.0,B,106,169
108,1,1272.0,05,334.0,B,106,173
110,1,1174.0,05,302.0,B,106,178
112,1,1127.0,05,217.0,B,106,185
114,1,1110.0,05,250.0,B,106,187
116,1,1212.0,05,252.0,B,106,205
118,1,1266.0,05,276.0,B,106,210
120,1,1239.0,05,261.0,B,106,215
122,1,1199.0,05,303.0,B,106,239
125,1,1271.0,10,270.0,B,106,16
127,1,1239.0,10,276.0,B,106,50
129,1,1143.0,10,255.0,B,106,53
131,1,1310.0,10,257.0,B,106,63
133,1,1234.0,10,317.0,B,106,70
135,1,1122.0,10,261.0,B,106,87
137,1,1287.0,10,227.0,B,106,96
139,1,1207.0,10,272.0,B,106,99
141,1,1167.0,10,259.0,B,106,118
143,1,1153.0,10,263.0,B,106,125
145,1,1220.0,10,312.0,B,106,147
147,1,1094.0,10,267.0,B,106,148
149,1,1300.0,10,297.0,B,106,150
151,1,1224.0,10,264.0,B,106,162
153,1,1321.0,10,232.0,B,106,188
155,1,1243.0,10,283.0,B,106,206
157,1,1335.0,10,296.0,B,106,208
160,1,1115.0,30,252.0,B,106,52
162,1,1240.0,30,301.0,B,106,57
164,1,1181.0,30,245.0,B,106,58
166,1,1269.0,30,312.0,B,106,67
168,1,1275.0,30,258.0,B,106,86
170,1,1239.0,30,293.0,B,106,94
172,1,1290.0,30,207.0,B,106,104
174,1,1152.0,30,180.0,B,106,106
176,1,1170.0,30,262.0,B,106,115
178,1,1196.0,30,256.0,B,106,121
180,1,1331.0,30,271.0,B,106,124
182,1,1175.0,30,275.0,B,106,141
184,1,1160.0,30,331.0,B,106,142
186,1,1329.0,30,286.0,B,106,149
188,1,1164.0,30,237.0,B,106,179
190,1,1169.0,30,248.0,B,106,180
192,1,1284.0,30,284.0,B,106,194
194,1,1266.0,30,416.0,B,106,230
196,1,1292.0,30,221.0,B,106,232
199,0,1117.0,05,274.0,A,106,1
201,0,1197.0,05,275.0,A,106,4
203,0,1133.0,05,315.0,A,106,12
205,0,1116.0,05,289.0,A,106,19
207,0,1156.0,05,248.0,A,106,30
209,0,1104.0,05,260.0,A,106,31
211,0,1144.0,05,221.0,A,106,47
213,0,938.0,05,318.0,A,106,75
215,0,1009.0,05,239.0,A,106,84
217,0,1140.0,05,204.0,A,106,88
219,0,1207.0,05,296.0,A,106,108
221,0,900.0,05,230.0,A,106,109
223,0,297.0,05,234.0,A,106,113
225,0,1151.0,05,267.0,A,106,120
227,0,1163.0,05,239.0,A,106,131
229,0,706.0,05,289.0,A,106,135
231,0,706.0,05,255.0,A,106,156
233,0,844.0,05,541.0,A,106,167
235,0,1168.0,05,253.0,A,106,168
237,0,898.0,05,290.0,A,106,170
239,0,1158.0,05,300.0,A,106,176
241,0,709.0,05,232.0,A,106,183
243,0,1118.0,05,267.0,A,106,207
245,0,836.0,05,281.0,A,106,223
247,0,1190.0,05,496.0,A,106,233
250,0,1167.0,10,357.0,A,106,7
252,0,876.0,10,272.0,A,106,20
254,0,833.0,10,241.0,A,106,23
256,0,1040.0,10,255.0,A,106,41
258,0,1157.0,10,286.0,A,106,54
260,0,771.0,10,260.0,A,106,55
262,0,408.0,10,296.0,A,106,68
264,0,1219.0,10,312.0,A,106,73
266,0,1239.0,10,296.0,A,106,74
268,0,1236.0,10,299.0,A,106,82
270,0,1199.0,10,256.0,A,106,92
272,0,744.0,10,258.0,A,106,101
274,0,1165.0,10,301.0,A,106,111
276,0,920.0,10,230.0,A,106,114
278,0,1061.0,10,277.0,A,106,126
280,0,986.0,10,256.0,A,106,154
282,0,725.0,10,351.0,A,106,163
284,0,964.0,10,252.0,A,106,177
286,0,1185.0,10,260.0,A,106,184
288,0,1045.0,10,251.0,A,106,186
290,0,769.0,10,342.0,A,106,196
292,0,815.0,10,345.0,A,106,202
294,0,693.0,10,258.0,A,106,212
296,0,1200.0,10,495.0,A,106,224
298,0,864.0,10,243.0,A,106,238
301,0,1123.0,30,234.0,A,106,2
303,0,1077.0,30,339.0,A,106,3
305,0,1202.0,30,255.0,A,106,35
307,0,1140.0,30,293.0,A,106,39
309,0,1141.0,30,221.0,A,106,49
311,0,769.0,30,269.0,A,106,66
313,0,546.0,30,251.0,A,106,69
315,0,844.0,30,299.0,A,106,79
317,0,661.0,30,258.0,A,106,89
319,0,1175.0,30,219.0,A,106,90
321,0,670.0,30,267.0,A,106,98
323,0,742.0,30,217.0,A,106,103
325,0,772.0,30,348.0,A,106,107
327,0,806.0,30,292.0,A,106,110
329,0,1039.0,30,226.0,A,106,127
331,0,1029.0,30,223.0,A,106,129
333,0,650.0,30,256.0,A,106,143
335,0,605.0,30,241.0,A,106,151
337,0,905.0,30,285.0,A,106,155
339,0,844.0,30,253.0,A,106,161
341,0,658.0,30,266.0,A,106,175
343,0,632.0,30,215.0,A,106,190
345,0,806.0,30,239.0,A,106,199
347,0,1074.0,30,271.0,A,106,203
349,0,1169.0,30,273.0,A,106,216
351,0,866.0,30,221.0,A,106,220
353,0,1196.0,30,329.0,A,106,225
356,0,355.0,05,355.0,B,106,0
358,0,0.0,05,232.0,B,106,8
360,0,1279.0,05,329.0,B,106,9
362,0,1238.0,05,237.0,B,106,18
364,0,1055.0,05,287.0,B,106,24
366,0,1050.0,05,316.0,B,106,32
368,0,485.0,05,241.0,B,106,36
370,0,1249.0,05,333.0,B,106,56
372,0,560.0,05,294.0,B,106,61
374,0,1334.0,05,428.0,B,106,81
376,0,925.0,05,283.0,B,106,85
378,0,0.0,05,308.0,B,106,95
380,0,1038.0,05,214.0,B,106,102
382,0,1207.0,05,241.0,B,106,116
384,0,1299.0,05,237.0,B,106,117
386,0,0.0,05,306.0,B,106,128
388,0,523.0,05,245.0,B,106,130
390,0,1016.0,05,358.0,B,106,134
392,0,1205.0,05,239.0,B,106,165
394,0,1018.0,05,262.0,B,106,181
396,0,1040.0,05,307.0,B,106,191
398,0,0.0,05,307.0,B,106,231
400,0,576.0,05,278.0,B,106,237
403,0,0.0,10,291.0,B,106,10
405,0,822.0,10,317.0,B,106,17
407,0,472.0,10,331.0,B,106,22
409,0,865.0,10,280.0,B,106,26
411,0,1008.0,10,288.0,B,106,40
413,0,1186.0,10,261.0,B,106,42
415,0,1189.0,10,245.0,B,106,45
417,0,846.0,10,296.0,B,106,72
419,0,653.0,10,325.0,B,106,80
421,0,1214.0,10,295.0,B,106,100
423,0,581.0,10,295.0,B,106,105
425,0,704.0,10,265.0,B,106,133
427,0,689.0,10,337.0,B,106,144
429,0,1317.0,10,288.0,B,106,158
431,0,305.0,10,305.0,B,106,172
433,0,938.0,10,269.0,B,106,174
435,0,1025.0,10,362.0,B,106,195
437,0,0.0,10,386.0,B,106,197
439,0,987.0,10,231.0,B,106,211
441,0,562.0,10,267.0,B,106,222
443,0,0.0,10,329.0,B,106,226
445,0,1176.0,10,316.0,B,106,227
447,0,0.0,10,331.0,B,106,234
450,0,454.0,30,155.0,B,106,5
452,0,1344.0,30,70.0,B,106,6
454,0,1335.0,30,207.0,B,106,11
456,0,0.0,30,282.0,B,106,14
458,0,335.0,30,276.0,B,106,29
460,0,1017.0,30,288.0,B,106,38
462,0,523.0,30,403.0,B,106,48
464,0,1032.0,30,296.0,B,106,60
466,0,1325.0,30,308.0,B,106,62
468,0,0.0,30,347.0,B,106,71
470,0,0.0,30,320.0,B,106,112
472,0,0.0,30,293.0,B,106,153
474,0,926.0,30,283.0,B,106,157
476,0,667.0,30,309.0,B,106,160
478,0,1271.0,30,274.0,B,106,164
480,0,925.0,30,284.0,B,106,189
482,0,867.0,30,288.0,B,106,201
484,0,944.0,30,326.0,B,106,209
486,0,847.0,30,284.0,B,106,214
488,0,896.0,30,277.0,B,106,221
490,0,1263.0,30,266.0,B,106,229
1,1,1543.0,05,266.0,A,107,4
3,1,1570.0,05,274.0,A,107,12
5,1,1598.0,05,269.0,A,107,19
7,1,1580.0,05,288.0,A,107,25
9,1,1493.0,05,260.0,A,107,65
11,1,1227.0,05,295.0,A,107,75
13,1,1214.0,05,305.0,A,107,76
15,1,1509.0,05,264.0,A,107,84
17,1,1337.0,05,380.0,A,107,97
19,1,1370.0,05,342.0,A,107,108
21,1,1263.0,05,283.0,A,107,109
23,1,1304.0,05,315.0,A,107,113
25,1,1239.0,05,304.0,A,107,119
27,1,1496.0,05,327.0,A,107,122
29,1,1412.0,05,330.0,A,107,123
31,1,1294.0,05,255.0,A,107,131
33,1,1338.0,05,278.0,A,107,156
35,1,1282.0,05,305.0,A,107,193
37,1,1414.0,05,310.0,A,107,200
39,1,1380.0,05,312.0,A,107,218
41,1,1335.0,05,224.0,A,107,219
43,1,1388.0,05,296.0,A,107,223
45,1,1316.0,05,371.0,A,107,233
48,1,1562.0,10,254.0,A,107,7
50,1,1455.0,10,303.0,A,107,23
52,1,1324.0,10,260.0,A,107,34
54,1,1365.0,10,289.0,A,107,41
56,1,1505.0,10,240.0,A,107,54
58,1,1534.0,10,292.0,A,107,55
60,1,1337.0,10,300.0,A,107,68
62,1,1285.0,10,318.0,A,107,73
64,1,1534.0,10,262.0,A,107,74
66,1,1336.0,10,294.0,A,107,82
68,1,1444.0,10,369.0,A,107,83
70,1,1320.0,10,290.0,A,107,92
72,1,1426.0,10,258.0,A,107,111
74,1,1362.0,10,267.0,A,107,114
76,1,1155.0,10,245.0,A,107,132
78,1,1379.0,10,339.0,A,107,137
80,1,1294.0,10,350.0,A,107,138
82,1,1483.0,10,273.0,A,107,146
84,1,1556.0,10,245.0,A,107,154
86,1,1455.0,10,280.0,A,107,171
88,1,1564.0,10,324.0,A,107,177
90,1,1380.0,10,280.0,A,107,184
92,1,1459.0,10,355.0,A,107,186
94,1,1358.0,10,311.0,A,107,202
96,1,1313.0,10,307.0,A,107,212
98,1,1146.0,10,298.0,A,107,217
100,1,1161.0,10,287.0,A,107,228
103,1,1623.0,30,262.0,A,107,3
105,1,1578.0,30,263.0,A,107,21
107,1,1523.0,30,263.0,A,107,27
109,1,1508.0,30,274.0,A,107,33
111,1,1334.0,30,269.0,A,107,35
113,1,1528.0,30,283.0,A,107,49
115,1,1359.0,30,307.0,A,107,69
117,1,1235.0,30,247.0,A,107,78
119,1,1587.0,30,268.0,A,107,98
121,1,1468.0,30,280.0,A,107,127
123,1,1216.0,30,266.0,A,107,129
125,1,1484.0,30,314.0,A,107,136
127,1,1368.0,30,264.0,A,107,143
129,1,1292.0,30,251.0,A,107,145
131,1,1436.0,30,426.0,A,107,151
133,1,1280.0,30,268.0,A,107,155
135,1,1213.0,30,269.0,A,107,159
137,1,1301.0,30,322.0,A,107,161
139,1,1181.0,30,280.0,A,107,175
141,1,1293.0,30,270.0,A,107,190
143,1,1238.0,30,273.0,A,107,192
145,1,1393.0,30,261.0,A,107,213
147,1,1281.0,30,290.0,A,107,216
149,1,1259.0,30,287.0,A,107,220
151,1,1228.0,30,279.0,A,107,236
154,1,2300.0,05,330.0,B,107,0
156,1,1969.0,05,314.0,B,107,8
158,1,1912.0,05,312.0,B,107,9
160,1,1843.0,05,250.0,B,107,18
162,1,1882.0,05,256.0,B,107,24
164,1,1843.0,05,280.0,B,107,32
166,1,2030.0,05,289.0,B,107,61
168,1,2051.0,05,354.0,B,107,64
170,1,1910.0,05,292.0,B,107,77
172,1,1872.0,05,280.0,B,107,81
174,1,1957.0,05,297.0,B,107,85
176,1,1880.0,05,279.0,B,107,91
178,1,1693.0,05,272.0,B,107,95
180,1,1833.0,05,270.0,B,107,116
182,1,1969.0,05,350.0,B,107,117
184,1,1771.0,05,329.0,B,107,128
186,1,1663.0,05,279.0,B,107,134
188,1,1898.0,05,379.0,B,107,140
190,1,1777.0,05,240.0,B,107,152
192,1,2041.0,05,290.0,B,107,165
194,1,1838.0,05,270.0,B,107,169
196,1,1709.0,05,265.0,B,107,173
198,1,2179.0,05,368.0,B,107,178
200,1,2017.0,05,280.0,B,107,181
202,1,1831.0,05,291.0,B,107,185
204,1,1942.0,05,396.0,B,107,187
206,1,2014.0,05,286.0,B,107,191
208,1,1804.0,05,274.0,B,107,205
210,1,1761.0,05,298.0,B,107,210
212,1,1673.0,05,294.0,B,107,215
214,1,1760.0,05,282.0,B,107,231
216,1,1760.0,05,257.0,B,107,237
219,1,1873.0,10,258.0,B,107,10
221,1,1822.0,10,264.0,B,107,16
223,1,1849.0,10,309.0,B,107,17
225,1,1752.0,10,280.0,B,107,22
227,1,1950.0,10,303.0,B,107,26
229,1,1978.0,10,292.0,B,107,40
231,1,1965.0,10,306.0,B,107,42
233,1,1858.0,10,269.0,B,107,45
235,1,1835.0,10,280.0,B,107,50
237,1,1969.0,10,293.0,B,107,53
239,1,1811.0,10,259.0,B,107,63
241,1,1793.0,10,320.0,B,107,70
243,1,1945.0,10,389.0,B,107,72
245,1,1840.0,10,276.0,B,107,80
247,1,1834.0,10,229.0,B,107,87
249,1,1664.0,10,242.0,B,107,96
251,1,1625.0,10,312.0,B,107,99
253,1,1768.0,10,296.0,B,107,100
255,1,1781.0,10,291.0,B,107,125
257,1,2136.0,10,335.0,B,107,133
259,1,1944.0,10,275.0,B,107,144
261,1,1711.0,10,296.0,B,107,148
263,1,2053.0,10,284.0,B,107,150
265,1,1588.0,10,278.0,B,107,158
267,1,2178.0,10,386.0,B,107,162
269,1,1888.0,10,302.0,B,107,172
271,1,1976.0,10,406.0,B,107,174
273,1,1863.0,10,371.0,B,107,188
275,1,1689.0,10,311.0,B,107,195
277,1,1591.0,10,285.0,B,107,197
279,1,1911.0,10,313.0,B,107,206
281,1,1699.0,10,260.0,B,107,208
283,1,1743.0,10,294.0,B,107,211
285,1,2286.0,10,301.0,B,107,222
287,1,1940.0,10,306.0,B,107,226
289,1,1779.0,10,324.0,B,107,227
291,1,1861.0,10,271.0,B,107,234
294,1,1959.0,30,276.0,B,107,5
296,1,2015.0,30,281.0,B,107,6
298,1,2100.0,30,326.0,B,107,11
300,1,1955.0,30,310.0,B,107,14
302,1,1833.0,30,247.0,B,107,29
304,1,1898.0,30,275.0,B,107,48
306,1,1957.0,30,255.0,B,107,52
308,1,2036.0,30,263.0,B,107,60
310,1,1899.0,30,274.0,B,107,62
312,1,1880.0,30,257.0,B,107,67
314,1,1824.0,30,253.0,B,107,71
316,1,1839.0,30,309.0,B,107,94
318,1,1813.0,30,274.0,B,107,104
320,1,1897.0,30,283.0,B,107,106
322,1,1746.0,30,281.0,B,107,112
324,1,1925.0,30,330.0,B,107,121
326,1,1888.0,30,288.0,B,107,124
328,1,1830.0,30,313.0,B,107,141
330,1,1623.0,30,237.0,B,107,142
332,1,1829.0,30,285.0,B,107,149
334,1,1711.0,30,340.0,B,107,157
336,1,1645.0,30,315.0,B,107,160
338,1,1607.0,30,294.0,B,107,164
340,1,1841.0,30,351.0,B,107,179
342,1,1836.0,30,297.0,B,107,180
344,1,1961.0,30,296.0,B,107,189
346,1,1796.0,30,280.0,B,107,194
348,1,1801.0,30,321.0,B,107,201
350,1,1761.0,30,268.0,B,107,209
352,1,1597.0,30,268.0,B,107,221
354,1,1781.0,30,296.0,B,107,229
356,1,1988.0,30,285.0,B,107,230
358,1,1690.0,30,245.0,B,107,232
361,0,1466.0,05,263.0,A,107,1
363,0,1437.0,05,275.0,A,107,30
365,0,1495.0,05,302.0,A,107,31
367,0,1186.0,05,265.0,A,107,37
369,0,1351.0,05,325.0,A,107,44
371,0,1582.0,05,240.0,A,107,47
373,0,1050.0,05,240.0,A,107,88
375,0,1229.0,05,256.0,A,107,120
377,0,1571.0,05,265.0,A,107,135
379,0,1092.0,05,331.0,A,107,167
381,0,1541.0,05,241.0,A,107,168
383,0,1599.0,05,353.0,A,107,170
385,0,594.0,05,354.0,A,107,176
387,0,1176.0,05,542.0,A,107,183
389,0,1451.0,05,296.0,A,107,198
391,0,1572.0,05,274.0,A,107,207
393,0,1456.0,05,277.0,A,107,235
396,0,1557.0,10,282.0,A,107,13
398,0,1492.0,10,277.0,A,107,20
400,0,1442.0,10,260.0,A,107,28
402,0,1460.0,10,328.0,A,107,51
404,0,1006.0,10,245.0,A,107,93
406,0,1530.0,10,323.0,A,107,101
408,0,0.0,10,341.0,A,107,126
410,0,1262.0,10,327.0,A,107,163
412,0,1172.0,10,288.0,A,107,166
414,0,1069.0,10,285.0,A,107,196
416,0,277.0,10,277.0,A,107,204
418,0,1597.0,10,312.0,A,107,224
420,0,262.0,10,262.0,A,107,238
423,0,1558.0,30,347.0,A,107,2
425,0,1475.0,30,266.0,A,107,15
427,0,1603.0,30,258.0,A,107,39
429,0,1460.0,30,287.0,A,107,59
431,0,1539.0,30,258.0,A,107,66
433,0,1005.0,30,270.0,A,107,79
435,0,1464.0,30,294.0,A,107,89
437,0,1560.0,30,315.0,A,107,90
439,0,1582.0,30,295.0,A,107,103
441,0,1584.0,30,283.0,A,107,107
443,0,1430.0,30,435.0,A,107,110
445,0,0.0,30,325.0,A,107,182
447,0,1491.0,30,263.0,A,107,199
449,0,1620.0,30,266.0,A,107,203
451,0,1543.0,30,390.0,A,107,225
454,0,1530.0,05,304.0,B,107,36
456,0,401.0,05,266.0,B,107,43
458,0,468.0,05,320.0,B,107,46
460,0,985.0,05,362.0,B,107,56
462,0,455.0,05,323.0,B,107,102
464,0,1587.0,05,282.0,B,107,130
466,0,2111.0,05,504.0,B,107,139
468,0,424.0,05,276.0,B,107,239
471,0,1517.0,10,373.0,B,107,105
473,0,1490.0,10,270.0,B,107,118
475,0,1833.0,10,391.0,B,107,147
478,0,1189.0,30,385.0,B,107,38
480,0,1932.0,30,350.0,B,107,57
482,0,2029.0,30,270.0,B,107,58
484,0,1748.0,30,256.0,B,107,86
486,0,1670.0,30,319.0,B,107,115
488,0,1823.0,30,442.0,B,107,153
490,0,685.0,30,340.0,B,107,214
1,1,1486.0,05,379.0,A,108,12
3,1,1530.0,05,389.0,A,108,19
5,1,1424.0,05,437.0,A,108,65
7,1,1425.0,05,416.0,A,108,88
9,1,1304.0,05,314.0,A,108,108
11,1,1343.0,05,402.0,A,108,109
13,1,1258.0,05,370.0,A,108,122
15,1,1401.0,05,511.0,A,108,135
17,1,1351.0,05,435.0,A,108,176
20,1,1646.0,10,440.0,A,108,7
22,1,1623.0,10,496.0,A,108,13
24,1,1506.0,10,395.0,A,108,20
26,1,1427.0,10,339.0,A,108,55
28,1,1338.0,10,377.0,A,108,74
30,1,1419.0,10,372.0,A,108,82
32,1,1430.0,10,509.0,A,108,114
34,1,1359.0,10,474.0,A,108,137
36,1,1259.0,10,349.0,A,108,146
38,1,1228.0,10,342.0,A,108,154
40,1,1319.0,10,461.0,A,108,163
42,1,1389.0,10,498.0,A,108,166
44,1,1175.0,10,353.0,A,108,171
46,1,1360.0,10,485.0,A,108,177
49,1,1564.0,30,429.0,A,108,3
51,1,1440.0,30,359.0,A,108,15
53,1,1600.0,30,456.0,A,108,21
55,1,1426.0,30,348.0,A,108,49
57,1,1439.0,30,405.0,A,108,59
59,1,1341.0,30,363.0,A,108,69
61,1,1318.0,30,407.0,A,108,89
63,1,1420.0,30,361.0,A,108,98
65,1,1236.0,30,341.0,A,108,110
67,1,1285.0,30,335.0,A,108,145
69,1,1309.0,30,436.0,A,108,151
71,1,1243.0,30,398.0,A,108,159
73,1,1300.0,30,373.0,A,108,175
75,1,1287.0,30,417.0,A,108,182
78,1,2026.0,05,425.0,B,108,0
80,1,1789.0,05,402.0,B,108,8
82,1,1913.0,05,528.0,B,108,9
84,1,1877.0,05,343.0,B,108,18
86,1,1840.0,05,378.0,B,108,24
88,1,1699.0,05,401.0,B,108,56
90,1,1481.0,05,427.0,B,108,64
92,1,1633.0,05,434.0,B,108,77
94,1,1707.0,05,414.0,B,108,81
96,1,1683.0,05,542.0,B,108,85
98,1,1603.0,05,415.0,B,108,116
100,1,1579.0,05,403.0,B,108,139
102,1,1599.0,05,413.0,B,108,140
104,1,1582.0,05,395.0,B,108,152
106,1,1475.0,05,400.0,B,108,215
109,1,1606.0,10,359.0,B,108,10
111,1,1799.0,10,370.0,B,108,16
113,1,1775.0,10,420.0,B,108,17
115,1,1840.0,10,366.0,B,108,26
117,1,1679.0,10,402.0,B,108,40
119,1,1681.0,10,413.0,B,108,50
121,1,1672.0,10,419.0,B,108,63
123,1,1679.0,10,474.0,B,108,70
125,1,1677.0,10,416.0,B,108,72
127,1,1655.0,10,360.0,B,108,80
129,1,1709.0,10,461.0,B,108,87
131,1,1575.0,10,395.0,B,108,172
134,1,1819.0,30,385.0,B,108,5
136,1,1848.0,30,370.0,B,108,6
138,1,1947.0,30,408.0,B,108,11
140,1,1839.0,30,393.0,B,108,14
142,1,1649.0,30,318.0,B,108,29
144,1,1670.0,30,324.0,B,108,48
146,1,1710.0,30,353.0,B,108,52
148,1,1606.0,30,359.0,B,108,58
150,1,1517.0,30,346.0,B,108,62
152,1,1714.0,30,447.0,B,108,71
154,1,1572.0,30,358.0,B,108,94
156,1,1580.0,30,389.0,B,108,104
158,1,1549.0,30,506.0,B,108,141
160,1,1486.0,30,474.0,B,108,153
162,1,1511.0,30,433.0,B,108,160
164,1,1567.0,30,470.0,B,108,194
166,1,1580.0,30,462.0,B,108,209
168,1,1584.0,30,376.0,B,108,221
171,0,1522.0,05,808.0,A,108,1
173,0,548.0,05,407.0,A,108,4
175,0,971.0,05,415.0,A,108,25
177,0,1312.0,05,424.0,A,108,30
179,0,1342.0,05,448.0,A,108,31
181,0,1306.0,05,385.0,A,108,37
183,0,1421.0,05,610.0,A,108,44
185,0,1377.0,05,409.0,A,108,47
187,0,804.0,05,502.0,A,108,75
189,0,843.0,05,461.0,A,108,76
191,0,1437.0,05,619.0,A,108,84
193,0,933.0,05,606.0,A,108,97
195,0,669.0,05,362.0,A,108,113
197,0,1254.0,05,468.0,A,108,119
199,0,724.0,05,390.0,A,108,120
201,0,722.0,05,431.0,A,108,123
203,0,1289.0,05,442.0,A,108,131
205,0,816.0,05,486.0,A,108,156
207,0,1180.0,05,409.0,A,108,167
209,0,877.0,05,581.0,A,108,168
211,0,1325.0,05,858.0,A,108,170
213,0,789.0,05,442.0,A,108,183
215,0,783.0,05,388.0,A,108,193
217,0,787.0,05,397.0,A,108,198
219,0,798.0,05,454.0,A,108,200
221,0,909.0,05,370.0,A,108,207
223,0,1119.0,05,639.0,A,108,218
225,0,663.0,05,345.0,A,108,219
227,0,762.0,05,401.0,A,108,223
229,0,865.0,05,524.0,A,108,233
231,0,1075.0,05,732.0,A,108,235
234,0,1186.0,10,602.0,A,108,23
236,0,1624.0,10,450.0,A,108,28
238,0,1378.0,10,401.0,A,108,34
240,0,1415.0,10,381.0,A,108,41
242,0,1287.0,10,337.0,A,108,51
244,0,1401.0,10,397.0,A,108,54
246,0,818.0,10,484.0,A,108,68
248,0,1369.0,10,491.0,A,108,73
250,0,857.0,10,543.0,A,108,83
252,0,688.0,10,407.0,A,108,92
254,0,1291.0,10,401.0,A,108,93
256,0,889.0,10,558.0,A,108,101
258,0,1360.0,10,552.0,A,108,111
260,0,783.0,10,496.0,A,108,126
262,0,1172.0,10,362.0,A,108,132
264,0,1174.0,10,398.0,A,108,138
266,0,991.0,10,682.0,A,108,184
268,0,738.0,10,391.0,A,108,186
270,0,955.0,10,623.0,A,108,196
272,0,821.0,10,459.0,A,108,202
274,0,916.0,10,543.0,A,108,204
276,0,651.0,10,363.0,A,108,212
278,0,800.0,10,482.0,A,108,217
280,0,776.0,10,450.0,A,108,224
282,0,828.0,10,463.0,A,108,228
284,0,555.0,10,407.0,A,108,238
287,0,1363.0,30,373.0,A,108,2
289,0,1634.0,30,439.0,A,108,27
291,0,1307.0,30,379.0,A,108,33
293,0,1351.0,30,376.0,A,108,35
295,0,1326.0,30,364.0,A,108,39
297,0,833.0,30,527.0,A,108,66
299,0,1395.0,30,376.0,A,108,78
301,0,1363.0,30,376.0,A,108,79
303,0,790.0,30,423.0,A,108,90
305,0,1304.0,30,403.0,A,108,103
307,0,1322.0,30,631.0,A,108,107
309,0,455.0,30,315.0,A,108,127
311,0,788.0,30,460.0,A,108,129
313,0,511.0,30,332.0,A,108,136
315,0,1226.0,30,398.0,A,108,143
317,0,808.0,30,486.0,A,108,155
319,0,1202.0,30,420.0,A,108,161
321,0,565.0,30,412.0,A,108,190
323,0,685.0,30,332.0,A,108,192
325,0,812.0,30,449.0,A,108,199
327,0,1194.0,30,380.0,A,108,203
329,0,864.0,30,354.0,A,108,213
331,0,838.0,30,352.0,A,108,216
333,0,852.0,30,353.0,A,108,220
335,0,1029.0,30,486.0,A,108,225
337,0,921.0,30,420.0,A,108,236
340,0,1706.0,05,430.0,B,108,32
342,0,1152.0,05,314.0,B,108,36
344,0,1476.0,05,346.0,B,108,43
346,0,1404.0,05,366.0,B,108,46
348,0,1489.0,05,538.0,B,108,61
350,0,1475.0,05,471.0,B,108,91
352,0,551.0,05,349.0,B,108,95
354,0,845.0,05,406.0,B,108,102
356,0,1559.0,05,444.0,B,108,117
358,0,1548.0,05,676.0,B,108,128
360,0,1435.0,05,378.0,B,108,130
362,0,1494.0,05,474.0,B,108,134
364,0,1127.0,05,546.0,B,108,165
366,0,872.0,05,428.0,B,108,169
368,0,1439.0,05,569.0,B,108,173
370,0,1452.0,05,585.0,B,108,178
372,0,1424.0,05,432.0,B,108,181
374,0,977.0,05,434.0,B,108,185
376,0,1508.0,05,600.0,B,108,187
378,0,1431.0,05,540.0,B,108,191
380,0,1540.0,05,407.0,B,108,205
382,0,1564.0,05,448.0,B,108,210
384,0,1560.0,05,438.0,B,108,231
386,0,1079.0,05,444.0,B,108,237
388,0,1015.0,05,418.0,B,108,239
391,0,1181.0,10,425.0,B,108,22
393,0,1634.0,10,495.0,B,108,42
395,0,1344.0,10,359.0,B,108,45
397,0,1653.0,10,367.0,B,108,53
399,0,1482.0,10,348.0,B,108,96
401,0,1547.0,10,551.0,B,108,99
403,0,1470.0,10,614.0,B,108,100
405,0,1508.0,10,562.0,B,108,105
407,0,1028.0,10,420.0,B,108,118
409,0,1500.0,10,464.0,B,108,125
411,0,1533.0,10,457.0,B,108,133
413,0,1014.0,10,402.0,B,108,144
415,0,1581.0,10,547.0,B,108,147
417,0,1379.0,10,779.0,B,108,148
419,0,1590.0,10,661.0,B,108,150
421,0,1501.0,10,476.0,B,108,158
423,0,1584.0,10,537.0,B,108,162
425,0,1528.0,10,442.0,B,108,174
427,0,680.0,10,402.0,B,108,188
429,0,1547.0,10,1547.0,B,108,195
431,0,1353.0,10,697.0,B,108,197
433,0,1446.0,10,358.0,B,108,206
435,0,1060.0,10,455.0,B,108,208
437,0,1556.0,10,339.0,B,108,211
439,0,1555.0,10,423.0,B,108,222
441,0,1033.0,10,456.0,B,108,226
443,0,604.0,10,374.0,B,108,227
445,0,1193.0,10,548.0,B,108,234
448,0,1508.0,30,437.0,B,108,38
450,0,1629.0,30,410.0,B,108,57
452,0,1703.0,30,468.0,B,108,60
454,0,1546.0,30,503.0,B,108,67
456,0,1668.0,30,427.0,B,108,86
458,0,1548.0,30,575.0,B,108,106
460,0,1440.0,30,492.0,B,108,112
462,0,1532.0,30,471.0,B,108,115
464,0,1476.0,30,470.0,B,108,121
466,0,887.0,30,486.0,B,108,124
468,0,1353.0,30,454.0,B,108,142
470,0,1608.0,30,386.0,B,108,149
472,0,1499.0,30,375.0,B,108,157
474,0,996.0,30,473.0,B,108,164
476,0,848.0,30,496.0,B,108,179
478,0,1533.0,30,367.0,B,108,180
480,0,1457.0,30,438.0,B,108,189
482,0,1255.0,30,643.0,B,108,201
484,0,1417.0,30,417.0,B,108,214
486,0,1447.0,30,494.0,B,108,229
488,0,769.0,30,440.0,B,108,230
490,0,1539.0,30,478.0,B,108,232
1,1,1242.0,05,297.0,A,109,1
3,1,1199.0,05,296.0,A,109,4
5,1,1203.0,05,304.0,A,109,12
7,1,1169.0,05,320.0,A,109,19
9,1,1215.0,05,335.0,A,109,25
11,1,1093.0,05,288.0,A,109,37
13,1,1143.0,05,261.0,A,109,65
15,1,1106.0,05,291.0,A,109,75
17,1,1103.0,05,292.0,A,109,76
19,1,1014.0,05,258.0,A,109,84
21,1,1065.0,05,259.0,A,109,97
23,1,1089.0,05,302.0,A,109,108
25,1,1086.0,05,308.0,A,109,113
27,1,1049.0,05,261.0,A,109,119
29,1,986.0,05,210.0,A,109,122
31,1,1001.0,05,211.0,A,109,131
33,1,970.0,05,245.0,A,109,168
35,1,1038.0,05,293.0,A,109,170
37,1,989.0,05,278.0,A,109,176
39,1,989.0,05,278.0,A,109,183
41,1,1046.0,05,277.0,A,109,207
44,1,1146.0,10,291.0,A,109,7
46,1,1173.0,10,311.0,A,109,13
48,1,1220.0,10,325.0,A,109,20
50,1,1191.0,10,315.0,A,109,23
52,1,1276.0,10,288.0,A,109,28
54,1,1041.0,10,272.0,A,109,34
56,1,1145.0,10,302.0,A,109,41
58,1,1164.0,10,280.0,A,109,54
60,1,1154.0,10,281.0,A,109,68
62,1,1144.0,10,296.0,A,109,73
64,1,1030.0,10,249.0,A,109,82
66,1,1028.0,10,264.0,A,109,83
68,1,1032.0,10,247.0,A,109,92
70,1,1095.0,10,248.0,A,109,93
72,1,1145.0,10,269.0,A,109,101
74,1,1034.0,10,272.0,A,109,114
76,1,1028.0,10,285.0,A,109,146
78,1,1039.0,10,278.0,A,109,154
80,1,1029.0,10,288.0,A,109,177
82,1,937.0,10,253.0,A,109,184
84,1,988.0,10,263.0,A,109,186
86,1,1007.0,10,304.0,A,109,202
88,1,913.0,10,277.0,A,109,204
91,1,1295.0,30,361.0,A,109,2
93,1,1183.0,30,293.0,A,109,15
95,1,1213.0,30,275.0,A,109,21
97,1,1246.0,30,304.0,A,109,27
99,1,1119.0,30,291.0,A,109,33
101,1,1050.0,30,260.0,A,109,35
103,1,1040.0,30,309.0,A,109,39
105,1,1164.0,30,297.0,A,109,69
107,1,1147.0,30,294.0,A,109,89
109,1,1094.0,30,306.0,A,109,90
111,1,1124.0,30,307.0,A,109,98
113,1,1095.0,30,274.0,A,109,103
115,1,1045.0,30,275.0,A,109,107
117,1,1116.0,30,338.0,A,109,110
119,1,1015.0,30,281.0,A,109,151
121,1,994.0,30,270.0,A,109,155
123,1,1005.0,30,270.0,A,109,175
125,1,975.0,30,236.0,A,109,182
127,1,987.0,30,265.0,A,109,190
129,1,962.0,30,246.0,A,109,192
131,1,1013.0,30,287.0,A,109,199
133,1,960.0,30,273.0,A,109,203
136,1,1300.0,05,314.0,B,109,8
138,1,1304.0,05,294.0,B,109,9
140,1,1536.0,05,294.0,B,109,18
142,1,1357.0,05,325.0,B,109,24
144,1,1230.0,05,301.0,B,109,32
146,1,1161.0,05,280.0,B,109,36
148,1,1190.0,05,266.0,B,109,56
150,1,1180.0,05,293.0,B,109,61
152,1,1294.0,05,308.0,B,109,64
154,1,1240.0,05,300.0,B,109,77
156,1,1202.0,05,267.0,B,109,91
158,1,1172.0,05,288.0,B,109,95
160,1,1241.0,05,242.0,B,109,102
162,1,1208.0,05,274.0,B,109,116
164,1,1190.0,05,293.0,B,109,117
166,1,1063.0,05,270.0,B,109,134
168,1,1047.0,05,255.0,B,109,165
170,1,1152.0,05,290.0,B,109,181
172,1,1112.0,05,264.0,B,109,185
174,1,1014.0,05,240.0,B,109,187
176,1,1156.0,05,260.0,B,109,191
178,1,957.0,05,236.0,B,109,239
181,1,1326.0,10,322.0,B,109,10
183,1,1337.0,10,291.0,B,109,16
185,1,1363.0,10,354.0,B,109,17
187,1,1388.0,10,323.0,B,109,22
189,1,1314.0,10,310.0,B,109,26
191,1,1279.0,10,289.0,B,109,53
193,1,1215.0,10,290.0,B,109,70
195,1,1284.0,10,267.0,B,109,80
197,1,1248.0,10,273.0,B,109,87
199,1,1228.0,10,256.0,B,109,96
201,1,1240.0,10,337.0,B,109,105
203,1,1243.0,10,274.0,B,109,118
205,1,1130.0,10,267.0,B,109,125
207,1,1006.0,10,234.0,B,109,144
209,1,1130.0,10,277.0,B,109,147
211,1,1136.0,10,292.0,B,109,162
213,1,1121.0,10,284.0,B,109,188
215,1,1079.0,10,278.0,B,109,206
217,1,1073.0,10,247.0,B,109,208
219,1,976.0,10,273.0,B,109,227
222,1,1389.0,30,305.0,B,109,5
224,1,1342.0,30,291.0,B,109,6
226,1,1353.0,30,292.0,B,109,14
228,1,1327.0,30,290.0,B,109,29
230,1,1183.0,30,297.0,B,109,38
232,1,1269.0,30,273.0,B,109,52
234,1,1294.0,30,294.0,B,109,57
236,1,1209.0,30,265.0,B,109,58
238,1,1261.0,30,289.0,B,109,60
240,1,1125.0,30,247.0,B,109,62
242,1,1172.0,30,290.0,B,109,71
244,1,1154.0,30,285.0,B,109,94
246,1,1183.0,30,271.0,B,109,104
248,1,1209.0,30,295.0,B,109,106
250,1,1218.0,30,268.0,B,109,112
252,1,1257.0,30,249.0,B,109,115
254,1,1108.0,30,277.0,B,109,121
256,1,1163.0,30,249.0,B,109,124
258,1,1066.0,30,262.0,B,109,141
260,1,999.0,30,232.0,B,109,142
262,1,1102.0,30,278.0,B,109,164
264,1,1121.0,30,270.0,B,109,201
267,0,1052.0,05,310.0,A,109,30
269,0,1081.0,05,304.0,A,109,31
271,0,1053.0,05,270.0,A,109,44
273,0,1003.0,05,278.0,A,109,47
275,0,1070.0,05,279.0,A,109,88
277,0,737.0,05,280.0,A,109,109
279,0,1041.0,05,281.0,A,109,120
281,0,940.0,05,179.0,A,109,123
283,0,902.0,05,251.0,A,109,135
285,0,656.0,05,272.0,A,109,156
287,0,1033.0,05,306.0,A,109,167
289,0,828.0,05,268.0,A,109,193
291,0,1028.0,05,238.0,A,109,198
293,0,442.0,05,273.0,A,109,200
295,0,798.0,05,247.0,A,109,218
297,0,838.0,05,271.0,A,109,219
299,0,821.0,05,262.0,A,109,223
301,0,771.0,05,279.0,A,109,233
303,0,425.0,05,275.0,A,109,235
306,0,1129.0,10,313.0,A,109,51
308,0,495.0,10,269.0,A,109,55
310,0,1117.0,10,289.0,A,109,74
312,0,485.0,10,287.0,A,109,111
314,0,1019.0,10,264.0,A,109,126
316,0,995.0,10,279.0,A,109,132
318,0,583.0,10,345.0,A,109,137
320,0,475.0,10,274.0,A,109,138
322,0,1030.0,10,315.0,A,109,163
324,0,1033.0,10,290.0,A,109,166
326,0,681.0,10,246.0,A,109,171
328,0,471.0,10,274.0,A,109,196
330,0,405.0,10,236.0,A,109,212
332,0,409.0,10,241.0,A,109,217
334,0,0.0,10,299.0,A,109,224
336,0,914.0,10,254.0,A,109,228
338,0,812.0,10,263.0,A,109,238
341,0,1328.0,30,329.0,A,109,3
343,0,1137.0,30,286.0,A,109,49
345,0,561.0,30,294.0,A,109,59
347,0,1130.0,30,306.0,A,109,66
349,0,1090.0,30,281.0,A,109,78
351,0,1113.0,30,339.0,A,109,79
353,0,996.0,30,301.0,A,109,127
355,0,998.0,30,260.0,A,109,129
357,0,474.0,30,263.0,A,109,136
359,0,453.0,30,284.0,A,109,143
361,0,822.0,30,277.0,A,109,145
363,0,986.0,30,268.0,A,109,159
365,0,988.0,30,267.0,A,109,161
367,0,901.0,30,270.0,A,109,213
369,0,916.0,30,248.0,A,109,216
371,0,424.0,30,239.0,A,109,220
373,0,945.0,30,238.0,A,109,225
375,0,929.0,30,272.0,A,109,236
378,0,1350.0,05,309.0,B,109,0
380,0,1247.0,05,272.0,B,109,43
382,0,788.0,05,268.0,B,109,46
384,0,553.0,05,302.0,B,109,81
386,0,0.0,05,322.0,B,109,85
388,0,1022.0,05,251.0,B,109,128
390,0,1020.0,05,284.0,B,109,130
392,0,1148.0,05,301.0,B,109,139
394,0,1031.0,05,284.0,B,109,140
396,0,712.0,05,283.0,B,109,152
398,0,1107.0,05,299.0,B,109,169
400,0,663.0,05,303.0,B,109,173
402,0,1002.0,05,266.0,B,109,178
404,0,960.0,05,250.0,B,109,205
406,0,824.0,05,310.0,B,109,210
408,0,871.0,05,319.0,B,109,215
410,0,747.0,05,279.0,B,109,231
412,0,798.0,05,280.0,B,109,237
415,0,721.0,10,256.0,B,109,40
417,0,546.0,10,296.0,B,109,42
419,0,1242.0,10,296.0,B,109,45
421,0,1212.0,10,277.0,B,109,50
423,0,792.0,10,297.0,B,109,63
425,0,767.0,10,285.0,B,109,72
427,0,728.0,10,239.0,B,109,99
429,0,767.0,10,319.0,B,109,100
431,0,1022.0,10,287.0,B,109,133
433,0,930.0,10,274.0,B,109,148
435,0,771.0,10,249.0,B,109,150
437,0,643.0,10,261.0,B,109,158
439,0,1039.0,10,269.0,B,109,172
441,0,946.0,10,281.0,B,109,174
443,0,748.0,10,313.0,B,109,195
445,0,508.0,10,264.0,B,109,197
447,0,951.0,10,301.0,B,109,211
449,0,953.0,10,285.0,B,109,222
451,0,920.0,10,283.0,B,109,226
453,0,704.0,10,270.0,B,109,234
456,0,297.0,30,297.0,B,109,11
458,0,800.0,30,280.0,B,109,48
460,0,1123.0,30,269.0,B,109,67
462,0,576.0,30,277.0,B,109,86
464,0,769.0,30,284.0,B,109,149
466,0,965.0,30,255.0,B,109,153
468,0,740.0,30,281.0,B,109,157
470,0,936.0,30,267.0,B,109,160
472,0,751.0,30,281.0,B,109,179
474,0,790.0,30,252.0,B,109,180
476,0,943.0,30,278.0,B,109,189
478,0,767.0,30,295.0,B,109,194
480,0,285.0,30,285.0,B,109,209
482,0,742.0,30,280.0,B,109,214
484,0,955.0,30,258.0,B,109,221
486,0,774.0,30,311.0,B,109,229
488,0,746.0,30,285.0,B,109,230
490,0,728.0,30,260.0,B,109,232
1,1,1310.0,05,358.0,A,110,4
3,1,1383.0,05,325.0,A,110,19
5,1,1363.0,05,291.0,A,110,25
7,1,1323.0,05,325.0,A,110,31
9,1,1395.0,05,347.0,A,110,84
11,1,1337.0,05,337.0,A,110,123
13,1,1309.0,05,341.0,A,110,131
15,1,1330.0,05,325.0,A,110,170
17,1,1392.0,05,330.0,A,110,200
19,1,1364.0,05,300.0,A,110,218
21,1,1227.0,05,255.0,A,110,233
23,1,1275.0,05,294.0,A,110,235
26,1,1359.0,10,323.0,A,110,7
28,1,1359.0,10,345.0,A,110,23
30,1,1344.0,10,317.0,A,110,28
32,1,1359.0,10,350.0,A,110,34
34,1,1236.0,10,291.0,A,110,101
36,1,1359.0,10,387.0,A,110,132
38,1,1345.0,10,335.0,A,110,137
40,1,1376.0,10,287.0,A,110,154
42,1,1310.0,10,351.0,A,110,177
44,1,1333.0,10,316.0,A,110,202
46,1,1345.0,10,351.0,A,110,238
49,1,1393.0,30,362.0,A,110,2
51,1,1274.0,30,299.0,A,110,3
53,1,1345.0,30,300.0,A,110,21
55,1,1335.0,30,308.0,A,110,27
57,1,1316.0,30,334.0,A,110,33
59,1,1283.0,30,338.0,A,110,35
61,1,1359.0,30,309.0,A,110,66
63,1,1341.0,30,353.0,A,110,98
65,1,1381.0,30,340.0,A,110,110
67,1,1304.0,30,318.0,A,110,143
69,1,1325.0,30,351.0,A,110,155
71,1,1392.0,30,347.0,A,110,159
73,1,1326.0,30,285.0,A,110,161
75,1,1220.0,30,298.0,A,110,182
77,1,1396.0,30,371.0,A,110,190
79,1,1387.0,30,329.0,A,110,213
81,1,1375.0,30,300.0,A,110,216
83,1,1345.0,30,318.0,A,110,220
85,1,1338.0,30,296.0,A,110,225
87,1,1303.0,30,280.0,A,110,236
90,1,1930.0,05,405.0,B,110,18
92,1,1682.0,05,362.0,B,110,24
94,1,1652.0,05,398.0,B,110,32
96,1,1791.0,05,365.0,B,110,36
98,1,1845.0,05,475.0,B,110,46
100,1,1609.0,05,310.0,B,110,56
102,1,1540.0,05,419.0,B,110,64
104,1,1450.0,05,349.0,B,110,102
106,1,1581.0,05,435.0,B,110,117
108,1,1572.0,05,331.0,B,110,130
110,1,1413.0,05,373.0,B,110,134
112,1,1508.0,05,411.0,B,110,165
114,1,1456.0,05,396.0,B,110,178
116,1,1511.0,05,408.0,B,110,187
119,1,1716.0,10,356.0,B,110,16
121,1,1583.0,10,323.0,B,110,17
123,1,1700.0,10,354.0,B,110,22
125,1,1977.0,10,497.0,B,110,26
127,1,1856.0,10,401.0,B,110,40
129,1,1943.0,10,569.0,B,110,50
131,1,1661.0,10,346.0,B,110,53
133,1,1555.0,10,320.0,B,110,63
135,1,1594.0,10,351.0,B,110,99
137,1,1649.0,10,439.0,B,110,118
139,1,1630.0,10,366.0,B,110,133
141,1,1557.0,10,345.0,B,110,148
143,1,1579.0,10,338.0,B,110,174
146,1,1937.0,30,389.0,B,110,5
148,1,1813.0,30,338.0,B,110,6
150,1,1879.0,30,401.0,B,110,14
152,1,1677.0,30,389.0,B,110,29
154,1,1755.0,30,439.0,B,110,38
156,1,1681.0,30,346.0,B,110,48
158,1,1681.0,30,320.0,B,110,52
160,1,1708.0,30,381.0,B,110,57
162,1,1833.0,30,412.0,B,110,58
164,1,1637.0,30,338.0,B,110,62
166,1,1453.0,30,339.0,B,110,67
168,1,1514.0,30,365.0,B,110,106
170,1,1559.0,30,304.0,B,110,124
172,1,1533.0,30,314.0,B,110,149
174,1,1652.0,30,505.0,B,110,153
176,1,1632.0,30,320.0,B,110,157
178,1,1560.0,30,375.0,B,110,164
180,1,1649.0,30,428.0,B,110,180
183,0,1264.0,05,388.0,A,110,1
185,0,1373.0,05,382.0,A,110,12
187,0,1361.0,05,383.0,A,110,30
189,0,1381.0,05,409.0,A,110,37
191,0,1318.0,05,379.0,A,110,44
193,0,803.0,05,343.0,A,110,47
195,0,1246.0,05,395.0,A,110,65
197,0,1356.0,05,385.0,A,110,75
199,0,1334.0,05,384.0,A,110,76
201,0,1346.0,05,314.0,A,110,88
203,0,1367.0,05,385.0,A,110,97
205,0,1046.0,05,383.0,A,110,108
207,0,1039.0,05,351.0,A,110,109
209,0,1234.0,05,407.0,A,110,113
211,0,1380.0,05,320.0,A,110,119
213,0,1262.0,05,436.0,A,110,120
215,0,1358.0,05,395.0,A,110,122
217,0,1128.0,05,358.0,A,110,135
219,0,1369.0,05,357.0,A,110,156
221,0,946.0,05,458.0,A,110,167
223,0,1210.0,05,350.0,A,110,168
225,0,1282.0,05,601.0,A,110,176
227,0,880.0,05,296.0,A,110,183
229,0,1016.0,05,353.0,A,110,193
231,0,1037.0,05,325.0,A,110,198
233,0,1298.0,05,429.0,A,110,207
235,0,1296.0,05,516.0,A,110,219
237,0,1203.0,05,419.0,A,110,223
240,0,1279.0,10,316.0,A,110,13
242,0,1385.0,10,463.0,A,110,20
244,0,1368.0,10,370.0,A,110,41
246,0,1283.0,10,363.0,A,110,51
248,0,1326.0,10,388.0,A,110,54
250,0,1318.0,10,406.0,A,110,55
252,0,919.0,10,278.0,A,110,68
254,0,1268.0,10,755.0,A,110,73
256,0,1361.0,10,321.0,A,110,74
258,0,1303.0,10,295.0,A,110,82
260,0,1293.0,10,503.0,A,110,83
262,0,1283.0,10,443.0,A,110,92
264,0,1262.0,10,418.0,A,110,93
266,0,927.0,10,348.0,A,110,111
268,0,1317.0,10,368.0,A,110,114
270,0,1325.0,10,357.0,A,110,126
272,0,799.0,10,347.0,A,110,138
274,0,1340.0,10,369.0,A,110,146
276,0,530.0,10,530.0,A,110,163
278,0,1352.0,10,354.0,A,110,166
280,0,1393.0,10,383.0,A,110,171
282,0,1177.0,10,331.0,A,110,184
284,0,908.0,10,285.0,A,110,186
286,0,1198.0,10,353.0,A,110,196
288,0,1259.0,10,459.0,A,110,204
290,0,1308.0,10,337.0,A,110,212
292,0,1313.0,10,323.0,A,110,217
294,0,1388.0,10,301.0,A,110,224
296,0,1341.0,10,579.0,A,110,228
299,0,1286.0,30,330.0,A,110,15
301,0,838.0,30,361.0,A,110,39
303,0,1293.0,30,318.0,A,110,49
305,0,1310.0,30,323.0,A,110,59
307,0,1107.0,30,336.0,A,110,69
309,0,843.0,30,320.0,A,110,78
311,0,1317.0,30,342.0,A,110,79
313,0,1272.0,30,378.0,A,110,89
315,0,1392.0,30,365.0,A,110,90
317,0,474.0,30,316.0,A,110,103
319,0,948.0,30,400.0,A,110,107
321,0,961.0,30,349.0,A,110,127
323,0,1326.0,30,361.0,A,110,129
325,0,1387.0,30,422.0,A,110,136
327,0,1293.0,30,336.0,A,110,145
329,0,1272.0,30,388.0,A,110,151
331,0,1254.0,30,464.0,A,110,175
333,0,1276.0,30,294.0,A,110,192
335,0,1338.0,30,403.0,A,110,199
337,0,1331.0,30,446.0,A,110,203
340,0,1923.0,05,386.0,B,110,0
342,0,1896.0,05,416.0,B,110,8
344,0,1971.0,05,461.0,B,110,9
346,0,1888.0,05,497.0,B,110,43
348,0,1452.0,05,376.0,B,110,61
350,0,1603.0,05,467.0,B,110,77
352,0,1589.0,05,454.0,B,110,81
354,0,1643.0,05,386.0,B,110,85
356,0,1411.0,05,481.0,B,110,91
358,0,1470.0,05,525.0,B,110,95
360,0,1483.0,05,416.0,B,110,116
362,0,1333.0,05,341.0,B,110,128
364,0,1453.0,05,384.0,B,110,139
366,0,1481.0,05,324.0,B,110,140
368,0,1557.0,05,438.0,B,110,152
370,0,1596.0,05,327.0,B,110,169
372,0,1575.0,05,541.0,B,110,173
374,0,894.0,05,323.0,B,110,181
376,0,1608.0,05,387.0,B,110,185
378,0,1501.0,05,420.0,B,110,191
380,0,652.0,05,318.0,B,110,205
382,0,974.0,05,385.0,B,110,210
384,0,1272.0,05,417.0,B,110,215
386,0,1312.0,05,315.0,B,110,231
388,0,1157.0,05,326.0,B,110,237
390,0,1543.0,05,369.0,B,110,239
393,0,1727.0,10,435.0,B,110,10
395,0,1141.0,10,364.0,B,110,42
397,0,1928.0,10,574.0,B,110,45
399,0,1570.0,10,384.0,B,110,70
401,0,1513.0,10,367.0,B,110,72
403,0,1624.0,10,369.0,B,110,80
405,0,1493.0,10,398.0,B,110,87
407,0,1504.0,10,366.0,B,110,96
409,0,1377.0,10,334.0,B,110,100
411,0,1516.0,10,393.0,B,110,105
413,0,1580.0,10,521.0,B,110,125
415,0,1636.0,10,357.0,B,110,144
417,0,1576.0,10,361.0,B,110,147
419,0,1602.0,10,445.0,B,110,150
421,0,1582.0,10,606.0,B,110,158
423,0,1539.0,10,364.0,B,110,162
425,0,804.0,10,312.0,B,110,172
427,0,862.0,10,347.0,B,110,188
429,0,1624.0,10,450.0,B,110,195
431,0,1381.0,10,481.0,B,110,197
433,0,1560.0,10,459.0,B,110,206
435,0,1476.0,10,378.0,B,110,208
437,0,1578.0,10,426.0,B,110,211
439,0,1380.0,10,333.0,B,110,222
441,0,1542.0,10,337.0,B,110,226
443,0,1545.0,10,404.0,B,110,227
445,0,1568.0,10,535.0,B,110,234
448,0,2033.0,30,608.0,B,110,11
450,0,1568.0,30,354.0,B,110,60
452,0,1569.0,30,387.0,B,110,71
454,0,1625.0,30,337.0,B,110,86
456,0,1467.0,30,301.0,B,110,94
458,0,1614.0,30,377.0,B,110,104
460,0,1471.0,30,408.0,B,110,112
462,0,1597.0,30,397.0,B,110,115
464,0,1597.0,30,370.0,B,110,121
466,0,1527.0,30,351.0,B,110,141
468,0,1616.0,30,495.0,B,110,142
470,0,1486.0,30,358.0,B,110,160
472,0,1585.0,30,452.0,B,110,179
474,0,939.0,30,377.0,B,110,189
476,0,1305.0,30,394.0,B,110,194
478,0,1627.0,30,714.0,B,110,201
480,0,1120.0,30,346.0,B,110,209
482,0,1572.0,30,341.0,B,110,214
484,0,1644.0,30,315.0,B,110,221
486,0,1470.0,30,316.0,B,110,229
488,0,1252.0,30,319.0,B,110,230
490,0,1544.0,30,300.0,B,110,232
1,1,1480.0,05,340.0,A,111,1
3,1,1406.0,05,380.0,A,111,4
5,1,1480.0,05,348.0,A,111,12
7,1,1407.0,05,325.0,A,111,19
9,1,1514.0,05,371.0,A,111,25
11,1,1332.0,05,300.0,A,111,31
13,1,1335.0,05,345.0,A,111,75
15,1,1321.0,05,315.0,A,111,76
17,1,1160.0,05,311.0,A,111,113
19,1,1295.0,05,288.0,A,111,123
21,1,1346.0,05,369.0,A,111,168
23,1,1341.0,05,330.0,A,111,170
25,1,1333.0,05,385.0,A,111,176
27,1,1318.0,05,317.0,A,111,183
29,1,1331.0,05,349.0,A,111,193
31,1,1278.0,05,277.0,A,111,200
33,1,1292.0,05,303.0,A,111,207
36,1,1428.0,10,365.0,A,111,7
38,1,1511.0,10,363.0,A,111,13
40,1,1367.0,10,341.0,A,111,20
42,1,1497.0,10,350.0,A,111,23
44,1,1193.0,10,295.0,A,111,34
46,1,1305.0,10,317.0,A,111,54
48,1,1352.0,10,333.0,A,111,55
50,1,1304.0,10,326.0,A,111,73
52,1,1309.0,10,318.0,A,111,83
54,1,1265.0,10,307.0,A,111,93
56,1,1205.0,10,310.0,A,111,111
58,1,1204.0,10,308.0,A,111,114
60,1,1356.0,10,366.0,A,111,163
62,1,1228.0,10,300.0,A,111,171
64,1,1229.0,10,327.0,A,111,186
66,1,1285.0,10,360.0,A,111,202
69,1,1482.0,30,345.0,A,111,2
71,1,1382.0,30,336.0,A,111,3
73,1,1380.0,30,303.0,A,111,27
75,1,1324.0,30,288.0,A,111,78
77,1,1209.0,30,270.0,A,111,89
79,1,1299.0,30,275.0,A,111,98
81,1,1210.0,30,280.0,A,111,107
83,1,1235.0,30,322.0,A,111,110
85,1,1350.0,30,302.0,A,111,127
87,1,1338.0,30,377.0,A,111,145
89,1,1312.0,30,327.0,A,111,161
91,1,1372.0,30,307.0,A,111,175
93,1,1196.0,30,252.0,A,111,190
95,1,1269.0,30,284.0,A,111,192
97,1,1241.0,30,284.0,A,111,203
100,1,1701.0,05,308.0,B,111,8
102,1,1762.0,05,327.0,B,111,9
104,1,1387.0,05,322.0,B,111,64
106,1,1464.0,05,289.0,B,111,77
108,1,1487.0,05,46.0,B,111,130
110,1,1392.0,05,247.0,B,111,165
112,1,1511.0,05,314.0,B,111,181
114,1,1334.0,05,293.0,B,111,187
116,1,1403.0,05,321.0,B,111,205
119,1,1700.0,10,317.0,B,111,16
121,1,1602.0,10,366.0,B,111,22
123,1,1662.0,10,307.0,B,111,26
125,1,1449.0,10,331.0,B,111,63
127,1,1414.0,10,328.0,B,111,188
129,1,1493.0,10,343.0,B,111,195
131,1,1452.0,10,287.0,B,111,206
134,1,1761.0,30,345.0,B,111,5
136,1,1668.0,30,293.0,B,111,11
138,1,1772.0,30,390.0,B,111,29
140,1,1477.0,30,285.0,B,111,48
142,1,1476.0,30,313.0,B,111,58
144,1,1440.0,30,325.0,B,111,62
146,1,1467.0,30,272.0,B,111,94
148,1,1271.0,30,270.0,B,111,142
150,1,1436.0,30,288.0,B,111,149
152,1,1491.0,30,268.0,B,111,157
154,1,1456.0,30,321.0,B,111,160
156,1,1526.0,30,315.0,B,111,164
158,1,1385.0,30,302.0,B,111,179
160,1,1487.0,30,332.0,B,111,189
162,1,1381.0,30,323.0,B,111,201
164,1,1500.0,30,468.0,B,111,209
167,0,1313.0,05,351.0,A,111,30
169,0,1338.0,05,306.0,A,111,37
171,0,1301.0,05,317.0,A,111,44
173,0,1312.0,05,312.0,A,111,47
175,0,1083.0,05,313.0,A,111,65
177,0,1082.0,05,346.0,A,111,84
179,0,1351.0,05,357.0,A,111,88
181,0,1367.0,05,381.0,A,111,97
183,0,1063.0,05,389.0,A,111,108
185,0,1153.0,05,393.0,A,111,109
187,0,963.0,05,249.0,A,111,119
189,0,1074.0,05,321.0,A,111,120
191,0,1034.0,05,331.0,A,111,122
193,0,1067.0,05,300.0,A,111,131
195,0,1012.0,05,279.0,A,111,135
197,0,1233.0,05,351.0,A,111,156
199,0,1273.0,05,450.0,A,111,167
201,0,1026.0,05,261.0,A,111,198
204,0,936.0,10,315.0,A,111,28
206,0,1133.0,10,315.0,A,111,41
208,0,1299.0,10,330.0,A,111,51
210,0,815.0,10,341.0,A,111,68
212,0,1288.0,10,304.0,A,111,74
214,0,1066.0,10,307.0,A,111,82
216,0,1285.0,10,302.0,A,111,92
218,0,771.0,10,340.0,A,111,101
220,0,1011.0,10,298.0,A,111,126
222,0,1207.0,10,342.0,A,111,132
224,0,1376.0,10,418.0,A,111,137
226,0,962.0,10,295.0,A,111,138
228,0,623.0,10,264.0,A,111,146
230,0,1363.0,10,310.0,A,111,154
232,0,1365.0,10,397.0,A,111,166
234,0,869.0,10,340.0,A,111,177
236,0,1003.0,10,280.0,A,111,184
238,0,1038.0,10,323.0,A,111,196
240,0,605.0,10,350.0,A,111,204
243,0,1401.0,30,318.0,A,111,15
245,0,1454.0,30,424.0,A,111,21
247,0,1283.0,30,389.0,A,111,33
249,0,1041.0,30,301.0,A,111,35
251,0,1024.0,30,334.0,A,111,39
253,0,1212.0,30,293.0,A,111,49
255,0,1246.0,30,343.0,A,111,59
257,0,1014.0,30,314.0,A,111,66
259,0,1351.0,30,316.0,A,111,69
261,0,986.0,30,305.0,A,111,79
263,0,1369.0,30,334.0,A,111,90
265,0,733.0,30,295.0,A,111,103
267,0,1023.0,30,301.0,A,111,129
269,0,705.0,30,296.0,A,111,136
271,0,997.0,30,287.0,A,111,143
273,0,941.0,30,303.0,A,111,151
275,0,1137.0,30,284.0,A,111,155
277,0,1294.0,30,307.0,A,111,159
279,0,958.0,30,271.0,A,111,182
281,0,995.0,30,303.0,A,111,199
284,0,1766.0,05,315.0,B,111,0
286,0,1592.0,05,350.0,B,111,18
288,0,1061.0,05,374.0,B,111,24
290,0,1525.0,05,365.0,B,111,32
292,0,1443.0,05,353.0,B,111,36
294,0,1430.0,05,332.0,B,111,43
296,0,1134.0,05,322.0,B,111,46
298,0,1516.0,05,341.0,B,111,56
300,0,1367.0,05,316.0,B,111,61
302,0,1262.0,05,322.0,B,111,81
304,0,1423.0,05,321.0,B,111,85
306,0,1159.0,05,289.0,B,111,91
308,0,1074.0,05,288.0,B,111,95
310,0,1119.0,05,328.0,B,111,102
312,0,1098.0,05,343.0,B,111,116
314,0,811.0,05,329.0,B,111,117
316,0,1398.0,05,328.0,B,111,128
318,0,1116.0,05,280.0,B,111,134
320,0,1122.0,05,308.0,B,111,139
322,0,868.0,05,315.0,B,111,140
324,0,900.0,05,253.0,B,111,152
326,0,0.0,05,336.0,B,111,169
328,0,1095.0,05,363.0,B,111,173
330,0,1463.0,05,318.0,B,111,178
332,0,1407.0,05,384.0,B,111,185
334,0,1348.0,05,297.0,B,111,191
337,0,1002.0,10,330.0,B,111,10
339,0,646.0,10,360.0,B,111,17
341,0,1152.0,10,355.0,B,111,40
343,0,1390.0,10,302.0,B,111,42
345,0,1501.0,10,338.0,B,111,45
347,0,1388.0,10,332.0,B,111,50
349,0,1353.0,10,345.0,B,111,53
351,0,1466.0,10,295.0,B,111,70
353,0,1368.0,10,348.0,B,111,72
355,0,1415.0,10,329.0,B,111,80
357,0,809.0,10,301.0,B,111,87
359,0,1140.0,10,298.0,B,111,96
361,0,1358.0,10,369.0,B,111,99
363,0,1490.0,10,304.0,B,111,100
365,0,1377.0,10,387.0,B,111,105
367,0,1401.0,10,310.0,B,111,118
369,0,1040.0,10,282.0,B,111,125
371,0,1317.0,10,318.0,B,111,133
373,0,1434.0,10,618.0,B,111,144
375,0,1347.0,10,312.0,B,111,147
377,0,1474.0,10,361.0,B,111,148
379,0,1388.0,10,295.0,B,111,150
381,0,1275.0,10,337.0,B,111,158
383,0,1361.0,10,366.0,B,111,162
385,0,1012.0,10,295.0,B,111,172
387,0,1398.0,10,328.0,B,111,174
389,0,0.0,10,562.0,B,111,197
391,0,852.0,10,337.0,B,111,208
394,0,1671.0,30,375.0,B,111,6
396,0,1031.0,30,322.0,B,111,14
398,0,1401.0,30,327.0,B,111,38
400,0,1332.0,30,306.0,B,111,52
402,0,1338.0,30,366.0,B,111,57
404,0,1456.0,30,390.0,B,111,60
406,0,1078.0,30,243.0,B,111,67
408,0,1369.0,30,301.0,B,111,71
410,0,1377.0,30,324.0,B,111,86
412,0,1358.0,30,284.0,B,111,104
414,0,1388.0,30,327.0,B,111,106
416,0,912.0,30,292.0,B,111,112
418,0,885.0,30,283.0,B,111,115
420,0,1018.0,30,278.0,B,111,121
422,0,838.0,30,254.0,B,111,124
424,0,1076.0,30,316.0,B,111,141
426,0,906.0,30,291.0,B,111,153
428,0,1390.0,30,337.0,B,111,180
430,0,1357.0,30,376.0,B,111,194
1,1,2115.0,05,379.0,A,112,75
3,1,2122.0,05,442.0,A,112,120
5,1,1820.0,05,381.0,A,112,176
7,1,2182.0,05,379.0,A,112,200
10,1,2061.0,10,371.0,A,112,82
12,1,2131.0,10,386.0,A,112,83
14,1,1912.0,10,402.0,A,112,92
16,1,2026.0,10,462.0,A,112,146
18,1,1860.0,10,382.0,A,112,163
20,1,2223.0,10,379.0,A,112,171
22,1,1876.0,10,386.0,A,112,177
24,1,2125.0,10,404.0,A,112,186
26,1,2151.0,10,411.0,A,112,204
28,1,2183.0,10,362.0,A,112,212
30,1,2163.0,10,457.0,A,112,238
33,1,2095.0,30,385.0,A,112,33
35,1,2170.0,30,414.0,A,112,35
37,1,2102.0,30,313.0,A,112,39
39,1,2135.0,30,342.0,A,112,90
41,1,2066.0,30,382.0,A,112,98
43,1,1961.0,30,341.0,A,112,110
45,1,2165.0,30,302.0,A,112,145
47,1,2032.0,30,368.0,A,112,155
49,1,2026.0,30,376.0,A,112,159
51,1,1967.0,30,406.0,A,112,161
53,1,2003.0,30,430.0,A,112,175
55,1,2201.0,30,585.0,A,112,192
57,1,2181.0,30,523.0,A,112,199
59,1,1826.0,30,331.0,A,112,203
62,1,2457.0,05,549.0,B,112,18
64,1,2863.0,05,554.0,B,112,64
66,1,2735.0,05,641.0,B,112,77
68,1,2845.0,05,510.0,B,112,91
70,1,2767.0,05,742.0,B,112,95
72,1,2553.0,05,482.0,B,112,102
74,1,2336.0,05,587.0,B,112,116
76,1,2180.0,05,507.0,B,112,117
78,1,2462.0,05,496.0,B,112,128
80,1,2603.0,05,546.0,B,112,130
82,1,2349.0,05,520.0,B,112,134
84,1,2286.0,05,538.0,B,112,173
86,1,2633.0,05,445.0,B,112,178
88,1,2237.0,05,459.0,B,112,185
90,1,2733.0,05,515.0,B,112,205
92,1,2357.0,05,506.0,B,112,210
95,1,2324.0,10,462.0,B,112,63
97,1,2635.0,10,550.0,B,112,70
99,1,2665.0,10,514.0,B,112,80
101,1,2799.0,10,549.0,B,112,87
103,1,2486.0,10,570.0,B,112,99
105,1,2428.0,10,484.0,B,112,105
107,1,2690.0,10,448.0,B,112,133
109,1,2322.0,10,507.0,B,112,147
111,1,2945.0,10,443.0,B,112,148
113,1,2707.0,10,517.0,B,112,150
115,1,2476.0,10,559.0,B,112,162
117,1,2630.0,10,530.0,B,112,172
119,1,2382.0,10,525.0,B,112,174
121,1,2998.0,10,486.0,B,112,188
123,1,2469.0,10,630.0,B,112,195
125,1,2999.0,10,519.0,B,112,197
127,1,2412.0,10,525.0,B,112,206
129,1,2484.0,10,514.0,B,112,208
131,1,2372.0,10,513.0,B,112,211
134,1,2913.0,30,363.0,B,112,11
136,1,2987.0,30,473.0,B,112,38
138,1,2774.0,30,541.0,B,112,60
140,1,2919.0,30,594.0,B,112,67
142,1,2653.0,30,636.0,B,112,71
144,1,2765.0,30,530.0,B,112,94
146,1,2267.0,30,498.0,B,112,106
148,1,2301.0,30,497.0,B,112,112
150,1,2430.0,30,512.0,B,112,124
152,1,2513.0,30,534.0,B,112,141
154,1,2666.0,30,515.0,B,112,153
156,1,2514.0,30,483.0,B,112,157
158,1,2247.0,30,510.0,B,112,160
160,1,2209.0,30,474.0,B,112,164
162,1,2547.0,30,572.0,B,112,180
164,1,2574.0,30,501.0,B,112,189
166,1,2509.0,30,499.0,B,112,194
168,1,2727.0,30,677.0,B,112,201
171,0,2208.0,05,406.0,A,112,1
173,0,1982.0,05,426.0,A,112,4
175,0,561.0,05,471.0,A,112,12
177,0,2003.0,05,483.0,A,112,19
179,0,513.0,05,441.0,A,112,25
181,0,1781.0,05,1560.0,A,112,30
183,0,1941.0,05,431.0,A,112,31
185,0,1920.0,05,513.0,A,112,37
187,0,2167.0,05,478.0,A,112,44
189,0,1981.0,05,393.0,A,112,47
191,0,433.0,05,364.0,A,112,65
193,0,1941.0,05,377.0,A,112,76
195,0,1467.0,05,338.0,A,112,84
197,0,1011.0,05,569.0,A,112,88
199,0,1742.0,05,465.0,A,112,97
201,0,1973.0,05,469.0,A,112,108
203,0,1929.0,05,391.0,A,112,109
205,0,2008.0,05,817.0,A,112,113
207,0,1652.0,05,518.0,A,112,119
209,0,942.0,05,423.0,A,112,122
211,0,915.0,05,731.0,A,112,123
213,0,2074.0,05,422.0,A,112,131
215,0,1726.0,05,470.0,A,112,135
217,0,1911.0,05,536.0,A,112,156
219,0,924.0,05,435.0,A,112,167
221,0,1715.0,05,459.0,A,112,168
223,0,2034.0,05,593.0,A,112,170
225,0,948.0,05,360.0,A,112,183
227,0,1655.0,05,507.0,A,112,193
229,0,2035.0,05,409.0,A,112,198
231,0,1604.0,05,438.0,A,112,207
233,0,1904.0,05,443.0,A,112,218
235,0,0.0,05,864.0,A,112,219
237,0,2139.0,05,1322.0,A,112,223
239,0,2140.0,05,554.0,A,112,233
241,0,2189.0,05,551.0,A,112,235
244,0,2087.0,10,595.0,A,112,7
246,0,1896.0,10,435.0,A,112,13
248,0,2055.0,10,369.0,A,112,20
250,0,0.0,10,540.0,A,112,23
252,0,1206.0,10,359.0,A,112,28
254,0,2096.0,10,401.0,A,112,34
256,0,0.0,10,422.0,A,112,41
258,0,2117.0,10,495.0,A,112,51
260,0,1989.0,10,347.0,A,112,54
262,0,913.0,10,514.0,A,112,55
264,0,1910.0,10,517.0,A,112,68
266,0,1546.0,10,505.0,A,112,73
268,0,1665.0,10,445.0,A,112,74
270,0,1605.0,10,532.0,A,112,93
272,0,1918.0,10,335.0,A,112,101
274,0,1143.0,10,510.0,A,112,111
276,0,684.0,10,684.0,A,112,114
278,0,1243.0,10,521.0,A,112,126
280,0,2135.0,10,337.0,A,112,132
282,0,2071.0,10,716.0,A,112,137
284,0,1982.0,10,620.0,A,112,138
286,0,1564.0,10,373.0,A,112,154
288,0,613.0,10,476.0,A,112,166
290,0,1900.0,10,451.0,A,112,184
292,0,1680.0,10,394.0,A,112,196
294,0,1958.0,10,611.0,A,112,202
296,0,0.0,10,409.0,A,112,217
298,0,1978.0,10,479.0,A,112,224
300,0,0.0,10,410.0,A,112,228
303,0,1978.0,30,637.0,A,112,2
305,0,1917.0,30,392.0,A,112,3
307,0,1716.0,30,570.0,A,112,15
309,0,2088.0,30,350.0,A,112,21
311,0,1961.0,30,354.0,A,112,27
313,0,0.0,30,499.0,A,112,49
315,0,536.0,30,428.0,A,112,59
317,0,335.0,30,335.0,A,112,66
319,0,638.0,30,541.0,A,112,69
321,0,591.0,30,432.0,A,112,78
323,0,1976.0,30,363.0,A,112,79
325,0,1634.0,30,376.0,A,112,89
327,0,1777.0,30,341.0,A,112,103
329,0,935.0,30,383.0,A,112,107
331,0,1989.0,30,426.0,A,112,127
333,0,0.0,30,704.0,A,112,129
335,0,1958.0,30,366.0,A,112,136
337,0,1150.0,30,437.0,A,112,143
339,0,1785.0,30,453.0,A,112,151
341,0,1695.0,30,405.0,A,112,182
343,0,1493.0,30,382.0,A,112,190
345,0,2057.0,30,500.0,A,112,213
347,0,1141.0,30,412.0,A,112,216
349,0,497.0,30,385.0,A,112,220
351,0,527.0,30,450.0,A,112,225
353,0,828.0,30,401.0,A,112,236
356,0,2432.0,05,486.0,B,112,0
358,0,2752.0,05,484.0,B,112,8
360,0,2882.0,05,510.0,B,112,9
362,0,2642.0,05,441.0,B,112,24
364,0,478.0,05,478.0,B,112,32
366,0,1341.0,05,354.0,B,112,36
368,0,1859.0,05,580.0,B,112,43
370,0,1541.0,05,463.0,B,112,46
372,0,2794.0,05,567.0,B,112,56
374,0,2343.0,05,434.0,B,112,61
376,0,2583.0,05,644.0,B,112,81
378,0,816.0,05,485.0,B,112,85
380,0,791.0,05,495.0,B,112,139
382,0,526.0,05,526.0,B,112,140
384,0,2582.0,05,512.0,B,112,152
386,0,866.0,05,511.0,B,112,165
388,0,466.0,05,466.0,B,112,169
390,0,1646.0,05,500.0,B,112,181
392,0,2338.0,05,549.0,B,112,187
394,0,2141.0,05,481.0,B,112,191
396,0,2001.0,05,560.0,B,112,215
398,0,0.0,05,471.0,B,112,231
400,0,2383.0,05,553.0,B,112,237
402,0,2171.0,05,532.0,B,112,239
405,0,2370.0,10,549.0,B,112,10
407,0,1586.0,10,470.0,B,112,16
409,0,2776.0,10,605.0,B,112,17
411,0,627.0,10,627.0,B,112,22
413,0,2695.0,10,517.0,B,112,26
415,0,456.0,10,456.0,B,112,40
417,0,1520.0,10,409.0,B,112,42
419,0,1636.0,10,504.0,B,112,45
421,0,1289.0,10,511.0,B,112,50
423,0,2139.0,10,717.0,B,112,53
425,0,1731.0,10,554.0,B,112,72
427,0,2405.0,10,509.0,B,112,96
429,0,1823.0,10,435.0,B,112,100
431,0,1375.0,10,496.0,B,112,118
433,0,1438.0,10,427.0,B,112,125
435,0,1356.0,10,510.0,B,112,144
437,0,514.0,10,514.0,B,112,158
439,0,1948.0,10,517.0,B,112,222
441,0,2244.0,10,446.0,B,112,226
443,0,714.0,10,451.0,B,112,227
445,0,2277.0,10,474.0,B,112,234
448,0,1681.0,30,558.0,B,112,5
450,0,504.0,30,504.0,B,112,6
452,0,1260.0,30,487.0,B,112,14
454,0,2543.0,30,450.0,B,112,29
456,0,2654.0,30,503.0,B,112,48
458,0,2097.0,30,660.0,B,112,52
460,0,0.0,30,665.0,B,112,57
462,0,2652.0,30,397.0,B,112,58
464,0,2652.0,30,506.0,B,112,62
466,0,379.0,30,379.0,B,112,86
468,0,2812.0,30,597.0,B,112,104
470,0,2004.0,30,523.0,B,112,115
472,0,1912.0,30,474.0,B,112,121
474,0,550.0,30,468.0,B,112,142
476,0,0.0,30,413.0,B,112,149
478,0,0.0,30,409.0,B,112,179
480,0,888.0,30,665.0,B,112,209
482,0,2018.0,30,433.0,B,112,214
484,0,1105.0,30,459.0,B,112,221
486,0,2283.0,30,477.0,B,112,229
488,0,636.0,30,485.0,B,112,230
490,0,2329.0,30,460.0,B,112,232
1,1,1421.0,05,361.0,A,114,4
3,1,1575.0,05,370.0,A,114,12
5,1,1580.0,05,378.0,A,114,19
7,1,1601.0,05,305.0,A,114,30
9,1,1475.0,05,352.0,A,114,31
11,1,1517.0,05,313.0,A,114,37
13,1,1470.0,05,349.0,A,114,44
15,1,1429.0,05,334.0,A,114,47
17,1,1496.0,05,427.0,A,114,76
19,1,1517.0,05,384.0,A,114,97
21,1,1586.0,05,370.0,A,114,108
23,1,1470.0,05,406.0,A,114,113
25,1,1478.0,05,421.0,A,114,119
27,1,1305.0,05,307.0,A,114,123
29,1,1368.0,05,335.0,A,114,168
31,1,1394.0,05,350.0,A,114,170
34,1,1406.0,10,301.0,A,114,20
36,1,1598.0,10,345.0,A,114,54
38,1,1558.0,10,364.0,A,114,55
40,1,1535.0,10,381.0,A,114,68
42,1,1578.0,10,419.0,A,114,73
44,1,1414.0,10,307.0,A,114,74
46,1,1589.0,10,415.0,A,114,82
48,1,1537.0,10,342.0,A,114,83
50,1,1407.0,10,350.0,A,114,92
52,1,1446.0,10,396.0,A,114,93
54,1,1578.0,10,487.0,A,114,101
56,1,1495.0,10,325.0,A,114,114
58,1,1387.0,10,351.0,A,114,126
60,1,1374.0,10,322.0,A,114,196
63,1,1388.0,30,300.0,A,114,3
65,1,1457.0,30,293.0,A,114,15
67,1,1463.0,30,311.0,A,114,21
69,1,1579.0,30,344.0,A,114,35
71,1,1503.0,30,361.0,A,114,39
73,1,1457.0,30,345.0,A,114,49
75,1,1576.0,30,359.0,A,114,66
77,1,1568.0,30,383.0,A,114,69
79,1,1556.0,30,401.0,A,114,89
81,1,1585.0,30,338.0,A,114,90
83,1,1395.0,30,322.0,A,114,98
85,1,1337.0,30,365.0,A,114,136
87,1,1352.0,30,335.0,A,114,236
90,1,1624.0,05,348.0,B,114,9
92,1,1637.0,05,298.0,B,114,18
94,1,1660.0,05,323.0,B,114,24
96,1,1743.0,05,338.0,B,114,36
98,1,1723.0,05,295.0,B,114,43
100,1,1688.0,05,424.0,B,114,46
102,1,1794.0,05,436.0,B,114,61
104,1,1701.0,05,323.0,B,114,81
106,1,1777.0,05,344.0,B,114,91
108,1,1712.0,05,461.0,B,114,95
110,1,1603.0,05,363.0,B,114,102
112,1,1628.0,05,288.0,B,114,117
114,1,1507.0,05,342.0,B,114,128
116,1,1393.0,05,391.0,B,114,140
118,1,1327.0,05,323.0,B,114,152
120,1,1489.0,05,354.0,B,114,169
122,1,1442.0,05,336.0,B,114,185
124,1,1510.0,05,438.0,B,114,210
126,1,1366.0,05,330.0,B,114,215
129,1,1692.0,10,303.0,B,114,16
131,1,1775.0,10,324.0,B,114,22
133,1,1668.0,10,334.0,B,114,26
135,1,1750.0,10,371.0,B,114,40
137,1,1625.0,10,350.0,B,114,45
139,1,1740.0,10,324.0,B,114,50
141,1,1773.0,10,415.0,B,114,53
143,1,1533.0,10,286.0,B,114,63
145,1,1699.0,10,349.0,B,114,70
147,1,1493.0,10,318.0,B,114,72
149,1,1711.0,10,331.0,B,114,87
151,1,1735.0,10,456.0,B,114,96
153,1,1768.0,10,469.0,B,114,99
155,1,1747.0,10,387.0,B,114,100
157,1,1668.0,10,456.0,B,114,105
159,1,1459.0,10,363.0,B,114,118
161,1,1449.0,10,316.0,B,114,125
163,1,1508.0,10,337.0,B,114,188
165,1,1336.0,10,359.0,B,114,195
167,1,1303.0,10,290.0,B,114,197
169,1,1511.0,10,340.0,B,114,206
171,1,1389.0,10,275.0,B,114,208
173,1,1347.0,10,379.0,B,114,211
175,1,1296.0,10,304.0,B,114,222
177,1,1370.0,10,326.0,B,114,227
180,1,1541.0,30,305.0,B,114,11
182,1,1765.0,30,354.0,B,114,29
184,1,1675.0,30,299.0,B,114,52
186,1,1747.0,30,306.0,B,114,57
188,1,1643.0,30,285.0,B,114,58
190,1,1599.0,30,307.0,B,114,62
192,1,1612.0,30,313.0,B,114,71
194,1,1629.0,30,284.0,B,114,86
196,1,1590.0,30,328.0,B,114,94
198,1,1679.0,30,516.0,B,114,104
200,1,1587.0,30,451.0,B,114,106
202,1,1670.0,30,405.0,B,114,112
204,1,1752.0,30,384.0,B,114,115
206,1,1512.0,30,347.0,B,114,121
208,1,1361.0,30,415.0,B,114,141
210,1,1240.0,30,311.0,B,114,142
212,1,1508.0,30,331.0,B,114,149
214,1,1387.0,30,365.0,B,114,214
216,1,1475.0,30,467.0,B,114,221
218,1,1439.0,30,307.0,B,114,230
220,1,1432.0,30,369.0,B,114,232
223,0,1448.0,05,378.0,A,114,1
225,0,1179.0,05,340.0,A,114,25
227,0,932.0,05,280.0,A,114,65
229,0,1594.0,05,445.0,A,114,75
231,0,1462.0,05,591.0,A,114,84
233,0,848.0,05,332.0,A,114,88
235,0,1477.0,05,326.0,A,114,109
237,0,1220.0,05,335.0,A,114,120
239,0,1341.0,05,464.0,A,114,122
241,0,1236.0,05,374.0,A,114,131
243,0,1224.0,05,374.0,A,114,135
245,0,924.0,05,310.0,A,114,156
247,0,1239.0,05,359.0,A,114,167
249,0,1049.0,05,326.0,A,114,176
251,0,736.0,05,409.0,A,114,183
253,0,566.0,05,460.0,A,114,193
255,0,882.0,05,388.0,A,114,198
257,0,474.0,05,374.0,A,114,200
259,0,1328.0,05,475.0,A,114,207
261,0,576.0,05,289.0,A,114,218
263,0,1374.0,05,296.0,A,114,219
265,0,709.0,05,324.0,A,114,223
267,0,1130.0,05,460.0,A,114,233
269,0,1269.0,05,344.0,A,114,235
272,0,1564.0,10,478.0,A,114,7
274,0,1582.0,10,262.0,A,114,13
276,0,925.0,10,441.0,A,114,23
278,0,1599.0,10,427.0,A,114,28
280,0,1501.0,10,329.0,A,114,34
282,0,1092.0,10,365.0,A,114,41
284,0,791.0,10,360.0,A,114,51
286,0,1600.0,10,512.0,A,114,111
288,0,1267.0,10,414.0,A,114,132
290,0,1332.0,10,499.0,A,114,137
292,0,721.0,10,343.0,A,114,138
294,0,696.0,10,315.0,A,114,146
296,0,743.0,10,357.0,A,114,154
298,0,1303.0,10,324.0,A,114,163
300,0,1324.0,10,517.0,A,114,166
302,0,825.0,10,443.0,A,114,171
304,0,942.0,10,337.0,A,114,177
306,0,1380.0,10,371.0,A,114,184
308,0,1285.0,10,333.0,A,114,186
310,0,927.0,10,325.0,A,114,202
312,0,1387.0,10,382.0,A,114,204
314,0,1258.0,10,344.0,A,114,212
316,0,586.0,10,351.0,A,114,217
318,0,1359.0,10,399.0,A,114,224
320,0,1218.0,10,366.0,A,114,228
322,0,1375.0,10,475.0,A,114,238
325,0,1430.0,30,363.0,A,114,2
327,0,619.0,30,346.0,A,114,27
329,0,1108.0,30,283.0,A,114,33
331,0,782.0,30,303.0,A,114,59
333,0,1485.0,30,493.0,A,114,78
335,0,1499.0,30,312.0,A,114,79
337,0,777.0,30,335.0,A,114,103
339,0,1455.0,30,481.0,A,114,107
341,0,869.0,30,394.0,A,114,110
343,0,1271.0,30,368.0,A,114,127
345,0,1343.0,30,377.0,A,114,129
347,0,762.0,30,376.0,A,114,143
349,0,689.0,30,306.0,A,114,145
351,0,776.0,30,365.0,A,114,151
353,0,998.0,30,416.0,A,114,155
355,0,1050.0,30,423.0,A,114,159
357,0,1356.0,30,509.0,A,114,161
359,0,865.0,30,400.0,A,114,175
361,0,1376.0,30,413.0,A,114,182
363,0,812.0,30,327.0,A,114,190
365,0,425.0,30,322.0,A,114,192
367,0,1002.0,30,370.0,A,114,199
369,0,1013.0,30,357.0,A,114,203
371,0,972.0,30,398.0,A,114,213
373,0,831.0,30,365.0,A,114,216
375,0,1300.0,30,426.0,A,114,220
377,0,1074.0,30,470.0,A,114,225
380,0,1636.0,05,414.0,B,114,0
382,0,1454.0,05,344.0,B,114,8
384,0,1734.0,05,500.0,B,114,32
386,0,1712.0,05,347.0,B,114,56
388,0,1528.0,05,309.0,B,114,64
390,0,1416.0,05,348.0,B,114,77
392,0,1698.0,05,488.0,B,114,85
394,0,628.0,05,360.0,B,114,116
396,0,984.0,05,351.0,B,114,130
398,0,1358.0,05,304.0,B,114,134
400,0,1308.0,05,398.0,B,114,139
402,0,760.0,05,374.0,B,114,165
404,0,1503.0,05,445.0,B,114,173
406,0,1210.0,05,380.0,B,114,178
408,0,1383.0,05,353.0,B,114,181
410,0,1440.0,05,511.0,B,114,187
412,0,1350.0,05,430.0,B,114,191
414,0,1291.0,05,328.0,B,114,205
416,0,1351.0,05,348.0,B,114,231
418,0,748.0,05,373.0,B,114,237
420,0,620.0,05,357.0,B,114,239
423,0,1241.0,10,325.0,B,114,10
425,0,1615.0,10,348.0,B,114,17
427,0,1476.0,10,333.0,B,114,42
429,0,1619.0,10,475.0,B,114,80
431,0,1317.0,10,315.0,B,114,133
433,0,1425.0,10,525.0,B,114,144
435,0,1077.0,10,407.0,B,114,147
437,0,1414.0,10,463.0,B,114,148
439,0,1291.0,10,330.0,B,114,150
441,0,1252.0,10,377.0,B,114,158
443,0,1390.0,10,432.0,B,114,162
445,0,1468.0,10,495.0,B,114,172
447,0,1043.0,10,308.0,B,114,174
449,0,1289.0,10,416.0,B,114,226
451,0,1079.0,10,291.0,B,114,234
454,0,1609.0,30,353.0,B,114,5
456,0,1548.0,30,349.0,B,114,6
458,0,1573.0,30,462.0,B,114,14
460,0,1519.0,30,457.0,B,114,38
462,0,1436.0,30,418.0,B,114,48
464,0,1622.0,30,334.0,B,114,60
466,0,1578.0,30,345.0,B,114,67
468,0,1335.0,30,384.0,B,114,124
470,0,522.0,30,308.0,B,114,153
472,0,1104.0,30,291.0,B,114,157
474,0,1400.0,30,391.0,B,114,160
476,0,1428.0,30,350.0,B,114,164
478,0,1194.0,30,352.0,B,114,179
480,0,1494.0,30,422.0,B,114,180
482,0,1353.0,30,320.0,B,114,189
484,0,1387.0,30,324.0,B,114,194
486,0,1056.0,30,474.0,B,114,201
488,0,1438.0,30,564.0,B,114,209
490,0,1463.0,30,491.0,B,114,229
1,1,1692.0,05,446.0,A,115,12
3,1,1726.0,05,563.0,A,115,19
5,1,1669.0,05,460.0,A,115,25
7,1,1552.0,05,424.0,A,115,37
9,1,1753.0,05,414.0,A,115,44
11,1,1716.0,05,507.0,A,115,65
13,1,1504.0,05,421.0,A,115,75
15,1,1532.0,05,467.0,A,115,76
17,1,1738.0,05,430.0,A,115,84
20,1,1569.0,10,451.0,A,115,13
22,1,1659.0,10,411.0,A,115,34
24,1,1536.0,10,404.0,A,115,51
26,1,1594.0,10,378.0,A,115,54
28,1,1548.0,10,350.0,A,115,55
30,1,1479.0,10,437.0,A,115,68
32,1,1386.0,10,296.0,A,115,73
34,1,1504.0,10,413.0,A,115,74
36,1,1700.0,10,405.0,A,115,82
38,1,1500.0,10,348.0,A,115,83
41,1,1711.0,30,562.0,A,115,15
43,1,1621.0,30,392.0,A,115,27
45,1,1692.0,30,424.0,A,115,35
47,1,1496.0,30,453.0,A,115,39
49,1,1461.0,30,280.0,A,115,49
52,1,1926.0,05,438.0,B,115,8
54,1,1928.0,05,437.0,B,115,9
56,1,1921.0,05,478.0,B,115,18
58,1,2040.0,05,428.0,B,115,24
60,1,1806.0,05,401.0,B,115,61
62,1,1846.0,05,380.0,B,115,64
64,1,1869.0,05,497.0,B,115,77
66,1,1878.0,05,390.0,B,115,81
68,1,1736.0,05,417.0,B,115,91
70,1,1717.0,05,420.0,B,115,95
72,1,1675.0,05,454.0,B,115,102
74,1,1785.0,05,449.0,B,115,117
76,1,1734.0,05,458.0,B,115,130
78,1,1852.0,05,477.0,B,115,139
80,1,1728.0,05,416.0,B,115,152
82,1,1681.0,05,447.0,B,115,165
84,1,1793.0,05,482.0,B,115,169
86,1,1762.0,05,449.0,B,115,173
88,1,1643.0,05,428.0,B,115,178
90,1,1603.0,05,440.0,B,115,181
92,1,1794.0,05,483.0,B,115,187
94,1,1591.0,05,436.0,B,115,191
97,1,1866.0,10,446.0,B,115,10
99,1,2023.0,10,467.0,B,115,16
101,1,2032.0,10,475.0,B,115,17
103,1,2030.0,10,442.0,B,115,22
105,1,2024.0,10,490.0,B,115,26
107,1,1715.0,10,356.0,B,115,87
109,1,1744.0,10,417.0,B,115,99
111,1,1841.0,10,499.0,B,115,100
113,1,1803.0,10,406.0,B,115,125
115,1,1706.0,10,492.0,B,115,174
117,1,1613.0,10,458.0,B,115,188
119,1,1793.0,10,660.0,B,115,195
121,1,1704.0,10,465.0,B,115,197
124,1,2057.0,30,434.0,B,115,6
126,1,1835.0,30,440.0,B,115,11
128,1,1932.0,30,432.0,B,115,14
130,1,1866.0,30,376.0,B,115,38
132,1,1748.0,30,397.0,B,115,62
134,1,1799.0,30,379.0,B,115,86
136,1,1783.0,30,493.0,B,115,94
138,1,1737.0,30,469.0,B,115,104
140,1,1797.0,30,413.0,B,115,106
142,1,1687.0,30,460.0,B,115,121
144,1,1825.0,30,485.0,B,115,141
146,1,1673.0,30,462.0,B,115,153
148,1,1873.0,30,497.0,B,115,160
150,1,1727.0,30,461.0,B,115,164
152,1,1567.0,30,378.0,B,115,179
154,1,1857.0,30,533.0,B,115,180
156,1,1745.0,30,470.0,B,115,189
158,1,1680.0,30,460.0,B,115,194
160,1,1773.0,30,513.0,B,115,209
163,0,1462.0,05,541.0,A,115,1
165,0,608.0,05,547.0,A,115,4
167,0,1494.0,05,552.0,A,115,30
169,0,1732.0,05,416.0,A,115,31
171,0,1659.0,05,444.0,A,115,47
173,0,602.0,05,410.0,A,115,97
175,0,1248.0,05,478.0,A,115,108
177,0,435.0,05,435.0,A,115,109
179,0,1384.0,05,685.0,A,115,113
181,0,1084.0,05,414.0,A,115,119
183,0,1297.0,05,482.0,A,115,120
185,0,436.0,05,436.0,A,115,122
187,0,1411.0,05,409.0,A,115,123
189,0,444.0,05,444.0,A,115,131
191,0,369.0,05,369.0,A,115,135
193,0,487.0,05,487.0,A,115,156
195,0,587.0,05,404.0,A,115,167
197,0,306.0,05,306.0,A,115,168
199,0,1275.0,05,467.0,A,115,170
201,0,1266.0,05,493.0,A,115,176
203,0,1413.0,05,398.0,A,115,183
205,0,1220.0,05,377.0,A,115,193
207,0,620.0,05,329.0,A,115,198
209,0,1421.0,05,398.0,A,115,200
211,0,1403.0,05,429.0,A,115,207
213,0,1029.0,05,374.0,A,115,218
215,0,1359.0,05,412.0,A,115,219
217,0,1327.0,05,488.0,A,115,223
220,0,1380.0,10,431.0,A,115,7
222,0,911.0,10,528.0,A,115,20
224,0,767.0,10,388.0,A,115,23
226,0,1153.0,10,408.0,A,115,28
228,0,1724.0,10,475.0,A,115,41
230,0,350.0,10,350.0,A,115,92
232,0,1266.0,10,498.0,A,115,93
234,0,1182.0,10,420.0,A,115,101
236,0,993.0,10,524.0,A,115,111
238,0,603.0,10,603.0,A,115,114
240,0,1415.0,10,396.0,A,115,126
242,0,1226.0,10,420.0,A,115,132
244,0,1268.0,10,497.0,A,115,137
246,0,1401.0,10,382.0,A,115,138
248,0,1338.0,10,598.0,A,115,146
250,0,375.0,10,375.0,A,115,154
252,0,1240.0,10,420.0,A,115,163
254,0,1369.0,10,425.0,A,115,166
256,0,650.0,10,405.0,A,115,171
258,0,579.0,10,372.0,A,115,177
260,0,419.0,10,312.0,A,115,184
262,0,1366.0,10,425.0,A,115,186
264,0,1220.0,10,440.0,A,115,196
266,0,442.0,10,442.0,A,115,202
268,0,427.0,10,427.0,A,115,204
270,0,1408.0,10,422.0,A,115,212
272,0,1286.0,10,512.0,A,115,217
275,0,935.0,30,528.0,A,115,2
277,0,763.0,30,423.0,A,115,3
279,0,1355.0,30,443.0,A,115,21
281,0,830.0,30,431.0,A,115,33
283,0,1465.0,30,471.0,A,115,59
285,0,703.0,30,495.0,A,115,69
287,0,1095.0,30,287.0,A,115,78
289,0,1548.0,30,504.0,A,115,79
291,0,1467.0,30,554.0,A,115,89
293,0,1423.0,30,646.0,A,115,90
295,0,1358.0,30,493.0,A,115,98
297,0,1415.0,30,411.0,A,115,103
299,0,1193.0,30,384.0,A,115,107
301,0,650.0,30,449.0,A,115,110
303,0,1232.0,30,453.0,A,115,127
305,0,1379.0,30,392.0,A,115,129
307,0,1298.0,30,422.0,A,115,136
309,0,1240.0,30,458.0,A,115,143
311,0,636.0,30,521.0,A,115,145
313,0,1364.0,30,440.0,A,115,151
315,0,887.0,30,470.0,A,115,155
317,0,1328.0,30,460.0,A,115,159
319,0,1355.0,30,431.0,A,115,161
321,0,1373.0,30,418.0,A,115,175
323,0,435.0,30,435.0,A,115,182
325,0,1419.0,30,389.0,A,115,190
327,0,695.0,30,478.0,A,115,192
329,0,1231.0,30,441.0,A,115,199
331,0,714.0,30,509.0,A,115,203
333,0,1413.0,30,386.0,A,115,213
335,0,1231.0,30,463.0,A,115,216
338,0,0.0,05,30.0,B,115,0
340,0,1813.0,05,447.0,B,115,32
342,0,1854.0,05,504.0,B,115,36
344,0,1353.0,05,551.0,B,115,43
346,0,817.0,05,535.0,B,115,46
348,0,1078.0,05,460.0,B,115,56
350,0,1773.0,05,469.0,B,115,85
352,0,1411.0,05,525.0,B,115,116
354,0,979.0,05,514.0,B,115,128
356,0,1766.0,05,489.0,B,115,134
358,0,0.0,05,533.0,B,115,140
360,0,1242.0,05,499.0,B,115,185
362,0,1403.0,05,548.0,B,115,210
364,0,1374.0,05,492.0,B,115,215
367,0,996.0,10,413.0,B,115,40
369,0,953.0,10,337.0,B,115,42
371,0,1485.0,10,548.0,B,115,45
373,0,1711.0,10,405.0,B,115,50
375,0,1728.0,10,276.0,B,115,53
377,0,1679.0,10,404.0,B,115,63
379,0,1875.0,10,507.0,B,115,70
381,0,1115.0,10,538.0,B,115,72
383,0,1428.0,10,493.0,B,115,80
385,0,1028.0,10,473.0,B,115,96
387,0,1133.0,10,432.0,B,115,105
389,0,940.0,10,442.0,B,115,118
391,0,1229.0,10,477.0,B,115,133
393,0,1015.0,10,450.0,B,115,144
395,0,1384.0,10,530.0,B,115,147
397,0,0.0,10,523.0,B,115,148
399,0,1780.0,10,546.0,B,115,150
401,0,1380.0,10,512.0,B,115,158
403,0,1815.0,10,594.0,B,115,162
405,0,1230.0,10,389.0,B,115,172
407,0,1289.0,10,538.0,B,115,208
409,0,1450.0,10,525.0,B,115,211
412,0,2198.0,30,503.0,B,115,5
414,0,588.0,30,468.0,B,115,29
416,0,1590.0,30,562.0,B,115,48
418,0,937.0,30,352.0,B,115,52
420,0,1585.0,30,414.0,B,115,57
422,0,1027.0,30,451.0,B,115,58
424,0,1750.0,30,453.0,B,115,60
426,0,1678.0,30,466.0,B,115,67
428,0,1709.0,30,475.0,B,115,71
430,0,1849.0,30,518.0,B,115,112
432,0,1519.0,30,697.0,B,115,115
434,0,0.0,30,564.0,B,115,124
436,0,811.0,30,395.0,B,115,142
438,0,1153.0,30,571.0,B,115,149
440,0,1772.0,30,456.0,B,115,157
1,1,1897.0,05,340.0,A,116,1
3,1,1938.0,05,439.0,A,116,25
5,1,1779.0,05,438.0,A,116,31
7,1,1954.0,05,403.0,A,116,37
9,1,1751.0,05,480.0,A,116,44
11,1,2067.0,05,466.0,A,116,65
13,1,2210.0,05,505.0,A,116,76
15,1,2034.0,05,422.0,A,116,88
17,1,1834.0,05,453.0,A,116,109
19,1,2009.0,05,436.0,A,116,113
21,1,1702.0,05,421.0,A,116,120
23,1,2133.0,05,468.0,A,116,122
25,1,2253.0,05,1039.0,A,116,123
27,1,1842.0,05,436.0,A,116,131
29,1,2153.0,05,640.0,A,116,135
31,1,1704.0,05,498.0,A,116,156
33,1,1697.0,05,403.0,A,116,176
35,1,1713.0,05,431.0,A,116,183
37,1,1662.0,05,434.0,A,116,207
39,1,1684.0,05,500.0,A,116,219
41,1,1694.0,05,453.0,A,116,235
44,1,1859.0,10,397.0,A,116,13
46,1,1936.0,10,486.0,A,116,23
48,1,1831.0,10,419.0,A,116,34
50,1,1988.0,10,480.0,A,116,54
52,1,1893.0,10,422.0,A,116,74
54,1,1920.0,10,433.0,A,116,82
56,1,2049.0,10,545.0,A,116,92
58,1,1769.0,10,378.0,A,116,93
60,1,2150.0,10,406.0,A,116,101
62,1,2101.0,10,866.0,A,116,111
64,1,1844.0,10,465.0,A,116,126
66,1,2246.0,10,548.0,A,116,132
68,1,1734.0,10,443.0,A,116,137
70,1,1880.0,10,496.0,A,116,138
72,1,2229.0,10,873.0,A,116,146
74,1,1628.0,10,382.0,A,116,171
76,1,1593.0,10,431.0,A,116,212
78,1,1658.0,10,431.0,A,116,217
80,1,1653.0,10,454.0,A,116,224
83,1,1909.0,30,375.0,A,116,3
85,1,1922.0,30,391.0,A,116,21
87,1,1870.0,30,420.0,A,116,27
89,1,2125.0,30,400.0,A,116,33
91,1,1910.0,30,513.0,A,116,35
93,1,2000.0,30,386.0,A,116,49
95,1,1835.0,30,376.0,A,116,59
97,1,1796.0,30,464.0,A,116,66
99,1,1762.0,30,408.0,A,116,78
101,1,1978.0,30,541.0,A,116,89
103,1,1819.0,30,446.0,A,116,90
105,1,1787.0,30,408.0,A,116,98
107,1,1900.0,30,512.0,A,116,103
109,1,2136.0,30,792.0,A,116,110
111,1,1983.0,30,574.0,A,116,127
113,1,1709.0,30,414.0,A,116,129
115,1,1819.0,30,472.0,A,116,136
117,1,1953.0,30,564.0,A,116,143
119,1,1753.0,30,454.0,A,116,145
121,1,1622.0,30,418.0,A,116,161
123,1,1590.0,30,409.0,A,116,192
125,1,1727.0,30,598.0,A,116,213
127,1,1735.0,30,543.0,A,116,225
130,1,2120.0,05,381.0,B,116,8
132,1,2274.0,05,469.0,B,116,9
134,1,2112.0,05,376.0,B,116,18
136,1,2094.0,05,455.0,B,116,43
138,1,1961.0,05,418.0,B,116,77
140,1,2049.0,05,734.0,B,116,81
142,1,2085.0,05,457.0,B,116,116
144,1,2025.0,05,455.0,B,116,117
146,1,2047.0,05,516.0,B,116,134
148,1,1845.0,05,387.0,B,116,152
150,1,1440.0,05,436.0,B,116,165
152,1,2028.0,05,682.0,B,116,173
154,1,1740.0,05,493.0,B,116,181
156,1,2001.0,05,524.0,B,116,185
158,1,1959.0,05,704.0,B,116,187
160,1,1701.0,05,403.0,B,116,205
162,1,1597.0,05,400.0,B,116,215
164,1,1833.0,05,544.0,B,116,237
167,1,2139.0,10,394.0,B,116,16
169,1,2071.0,10,385.0,B,116,17
171,1,2372.0,10,416.0,B,116,22
173,1,2105.0,10,492.0,B,116,40
175,1,2077.0,10,394.0,B,116,80
177,1,2025.0,10,445.0,B,116,96
179,1,2021.0,10,447.0,B,116,99
181,1,1969.0,10,455.0,B,116,100
183,1,2030.0,10,450.0,B,116,118
185,1,1997.0,10,557.0,B,116,125
187,1,2005.0,10,414.0,B,116,148
189,1,2063.0,10,435.0,B,116,172
191,1,1820.0,10,498.0,B,116,174
193,1,1867.0,10,499.0,B,116,188
195,1,1770.0,10,436.0,B,116,197
197,1,1911.0,10,560.0,B,116,206
199,1,1734.0,10,508.0,B,116,211
201,1,1780.0,10,477.0,B,116,227
203,1,1703.0,10,467.0,B,116,234
206,1,2160.0,30,356.0,B,116,5
208,1,2198.0,30,397.0,B,116,6
210,1,2177.0,30,375.0,B,116,11
212,1,2283.0,30,400.0,B,116,14
214,1,2039.0,30,434.0,B,116,29
216,1,1955.0,30,418.0,B,116,48
218,1,2109.0,30,430.0,B,116,58
220,1,1938.0,30,413.0,B,116,67
222,1,1978.0,30,391.0,B,116,71
224,1,2076.0,30,393.0,B,116,104
226,1,2063.0,30,508.0,B,116,124
228,1,2013.0,30,442.0,B,116,141
230,1,1937.0,30,458.0,B,116,153
232,1,1789.0,30,439.0,B,116,160
234,1,1514.0,30,430.0,B,116,164
236,1,2009.0,30,484.0,B,116,180
238,1,2116.0,30,720.0,B,116,189
240,1,1895.0,30,455.0,B,116,201
242,1,1614.0,30,432.0,B,116,209
244,1,1973.0,30,439.0,B,116,221
246,1,1903.0,30,547.0,B,116,230
249,0,2236.0,05,639.0,A,116,4
251,0,2098.0,05,434.0,A,116,12
253,0,2089.0,05,431.0,A,116,19
255,0,2126.0,05,625.0,A,116,30
257,0,1210.0,05,494.0,A,116,47
259,0,1653.0,05,1474.0,A,116,75
261,0,2025.0,05,632.0,A,116,84
263,0,0.0,05,665.0,A,116,97
265,0,0.0,05,600.0,A,116,108
267,0,2069.0,05,491.0,A,116,119
269,0,1504.0,05,469.0,A,116,167
271,0,0.0,05,,A,116,168
273,0,1622.0,05,527.0,A,116,170
275,0,1596.0,05,569.0,A,116,193
277,0,1638.0,05,672.0,A,116,198
279,0,1642.0,05,536.0,A,116,200
281,0,720.0,05,494.0,A,116,218
283,0,1656.0,05,819.0,A,116,223
285,0,1655.0,05,553.0,A,116,233
288,0,2134.0,10,410.0,A,116,7
290,0,2074.0,10,582.0,A,116,20
292,0,2158.0,10,871.0,A,116,28
294,0,782.0,10,564.0,A,116,41
296,0,1272.0,10,427.0,A,116,51
298,0,2146.0,10,1208.0,A,116,55
300,0,1649.0,10,946.0,A,116,68
302,0,2131.0,10,454.0,A,116,73
304,0,0.0,10,1036.0,A,116,83
306,0,1262.0,10,467.0,A,116,114
308,0,1641.0,10,418.0,A,116,154
310,0,1597.0,10,996.0,A,116,163
312,0,1102.0,10,476.0,A,116,166
314,0,1119.0,10,392.0,A,116,177
316,0,1651.0,10,1328.0,A,116,184
318,0,1712.0,10,566.0,A,116,186
320,0,1581.0,10,606.0,A,116,196
322,0,1076.0,10,938.0,A,116,202
324,0,1680.0,10,707.0,A,116,204
326,0,1551.0,10,507.0,A,116,228
328,0,1734.0,10,1185.0,A,116,238
331,0,0.0,30,,A,116,2
333,0,2056.0,30,512.0,A,116,15
335,0,2093.0,30,845.0,A,116,39
337,0,2152.0,30,1445.0,A,116,69
339,0,2226.0,30,680.0,A,116,79
341,0,2011.0,30,508.0,A,116,107
343,0,1686.0,30,1395.0,A,116,151
345,0,1616.0,30,635.0,A,116,155
347,0,1514.0,30,987.0,A,116,159
349,0,1598.0,30,476.0,A,116,175
351,0,1118.0,30,606.0,A,116,182
353,0,1616.0,30,441.0,A,116,190
355,0,1576.0,30,482.0,A,116,199
357,0,1547.0,30,537.0,A,116,203
359,0,0.0,30,452.0,A,116,216
361,0,1482.0,30,541.0,A,116,220
363,0,1710.0,30,560.0,A,116,236
366,0,2381.0,05,409.0,B,116,0
368,0,1399.0,05,1026.0,B,116,24
370,0,1916.0,05,1409.0,B,116,32
372,0,1899.0,05,1523.0,B,116,36
374,0,1931.0,05,736.0,B,116,46
376,0,0.0,05,1577.0,B,116,56
378,0,2059.0,05,426.0,B,116,61
380,0,1998.0,05,804.0,B,116,64
382,0,1032.0,05,445.0,B,116,85
384,0,1865.0,05,458.0,B,116,91
386,0,1889.0,05,607.0,B,116,95
388,0,0.0,05,527.0,B,116,102
390,0,0.0,05,736.0,B,116,128
392,0,1787.0,05,629.0,B,116,130
394,0,1968.0,05,616.0,B,116,139
396,0,494.0,05,494.0,B,116,140
398,0,1931.0,05,628.0,B,116,169
400,0,1886.0,05,767.0,B,116,178
402,0,2100.0,05,1597.0,B,116,191
404,0,0.0,05,,B,116,210
406,0,2010.0,05,820.0,B,116,231
408,0,1850.0,05,677.0,B,116,239
411,0,0.0,10,683.0,B,116,10
413,0,574.0,10,574.0,B,116,26
415,0,1998.0,10,692.0,B,116,42
417,0,1840.0,10,501.0,B,116,45
419,0,1849.0,10,536.0,B,116,50
421,0,2009.0,10,704.0,B,116,53
423,0,1773.0,10,433.0,B,116,63
425,0,982.0,10,466.0,B,116,70
427,0,1933.0,10,649.0,B,116,72
429,0,1153.0,10,440.0,B,116,87
431,0,1739.0,10,561.0,B,116,105
433,0,688.0,10,688.0,B,116,133
435,0,1959.0,10,874.0,B,116,144
437,0,1197.0,10,622.0,B,116,147
439,0,1662.0,10,508.0,B,116,150
441,0,1982.0,10,1145.0,B,116,158
443,0,2051.0,10,1280.0,B,116,162
445,0,1995.0,10,1500.0,B,116,195
447,0,0.0,10,635.0,B,116,208
449,0,1764.0,10,907.0,B,116,222
451,0,2055.0,10,467.0,B,116,226
454,0,1781.0,30,367.0,B,116,38
456,0,0.0,30,784.0,B,116,52
458,0,1959.0,30,471.0,B,116,57
460,0,1659.0,30,397.0,B,116,60
462,0,1838.0,30,503.0,B,116,62
464,0,0.0,30,451.0,B,116,86
466,0,1421.0,30,607.0,B,116,94
468,0,1593.0,30,414.0,B,116,106
470,0,1615.0,30,410.0,B,116,112
472,0,1443.0,30,904.0,B,116,115
474,0,1857.0,30,667.0,B,116,121
476,0,1995.0,30,1656.0,B,116,142
478,0,1960.0,30,732.0,B,116,149
480,0,1681.0,30,490.0,B,116,157
482,0,1444.0,30,721.0,B,116,179
484,0,1593.0,30,770.0,B,116,194
486,0,1133.0,30,535.0,B,116,214
488,0,914.0,30,914.0,B,116,229
490,0,1719.0,30,641.0,B,116,232
1,1,2064.0,05,267.0,A,117,1
3,1,1683.0,05,554.0,A,117,109
5,1,1607.0,05,245.0,A,117,119
7,1,1719.0,05,298.0,A,117,120
9,1,1728.0,05,326.0,A,117,122
11,1,1607.0,05,383.0,A,117,131
13,1,1448.0,05,270.0,A,117,135
15,1,1621.0,05,422.0,A,117,170
17,1,1878.0,05,270.0,A,117,193
19,1,1383.0,05,339.0,A,117,200
21,1,1339.0,05,317.0,A,117,207
23,1,1916.0,05,695.0,A,117,218
30,1,2049.0,10,275.0,A,117,20
32,1,1796.0,10,337.0,A,117,68
34,1,1826.0,10,304.0,A,117,73
36,1,1958.0,10,660.0,A,117,74
38,1,2070.0,10,502.0,A,117,114
40,1,1865.0,10,777.0,A,117,137
42,1,1652.0,10,591.0,A,117,138
44,1,1392.0,10,356.0,A,117,171
46,1,1711.0,10,266.0,A,117,196
48,1,1326.0,10,337.0,A,117,202
50,1,1427.0,10,272.0,A,117,212
52,1,1758.0,10,481.0,A,117,217
54,1,1728.0,10,649.0,A,117,228
57,1,2073.0,30,405.0,A,117,2
59,1,1939.0,30,287.0,A,117,3
61,1,2057.0,30,290.0,A,117,15
63,1,2087.0,30,330.0,A,117,21
65,1,1817.0,30,676.0,A,117,89
67,1,1811.0,30,284.0,A,117,103
69,1,1827.0,30,431.0,A,117,145
71,1,1475.0,30,309.0,A,117,151
73,1,1604.0,30,431.0,A,117,159
75,1,1490.0,30,314.0,A,117,175
77,1,1401.0,30,285.0,A,117,199
79,1,1951.0,30,883.0,A,117,225
82,1,2032.0,05,286.0,B,117,9
84,1,1947.0,05,301.0,B,117,18
86,1,1995.0,05,476.0,B,117,64
88,1,1983.0,05,382.0,B,117,130
90,1,1605.0,05,308.0,B,117,134
92,1,1619.0,05,419.0,B,117,152
94,1,1591.0,05,343.0,B,117,178
96,1,1735.0,05,315.0,B,117,181
98,1,1658.0,05,313.0,B,117,191
100,1,1718.0,05,316.0,B,117,231
103,1,1835.0,10,284.0,B,117,10
105,1,2060.0,10,319.0,B,117,16
107,1,1983.0,10,490.0,B,117,17
109,1,1721.0,10,300.0,B,117,125
111,1,1737.0,10,366.0,B,117,144
113,1,1836.0,10,405.0,B,117,162
115,1,2037.0,10,451.0,B,117,188
117,1,1725.0,10,297.0,B,117,208
119,1,2076.0,10,772.0,B,117,227
122,1,1902.0,30,292.0,B,117,11
124,1,2012.0,30,351.0,B,117,62
126,1,1935.0,30,263.0,B,117,67
128,1,1982.0,30,451.0,B,117,94
130,1,2048.0,30,543.0,B,117,124
132,1,1825.0,30,498.0,B,117,141
134,1,1733.0,30,387.0,B,117,142
136,1,1730.0,30,332.0,B,117,149
138,1,1864.0,30,321.0,B,117,160
140,1,1769.0,30,297.0,B,117,180
142,1,1489.0,30,303.0,B,117,189
144,1,1633.0,30,306.0,B,117,194
146,1,1576.0,30,356.0,B,117,221
153,0,1962.0,05,294.0,A,117,12
155,0,1972.0,05,284.0,A,117,19
157,0,1909.0,05,314.0,A,117,25
159,0,0.0,05,,A,117,65
161,0,1781.0,05,597.0,A,117,75
163,0,1907.0,05,553.0,A,117,76
165,0,1743.0,05,461.0,A,117,84
167,0,0.0,05,,A,117,88
169,0,0.0,05,,A,117,97
171,0,2011.0,05,727.0,A,117,108
173,0,0.0,05,,A,117,113
175,0,1815.0,05,334.0,A,117,123
177,0,1780.0,05,1780.0,A,117,156
179,0,0.0,05,,A,117,167
181,0,0.0,05,,A,117,168
183,0,0.0,05,,A,117,176
185,0,0.0,05,,A,117,183
187,0,1956.0,05,496.0,A,117,198
189,0,0.0,05,,A,117,219
191,0,0.0,05,,A,117,223
193,0,0.0,05,,A,117,233
196,0,936.0,10,283.0,A,117,7
198,0,1971.0,10,1392.0,A,117,23
200,0,2066.0,10,854.0,A,117,28
202,0,1765.0,10,872.0,A,117,82
204,0,2096.0,10,983.0,A,117,83
206,0,2087.0,10,1351.0,A,117,92
208,0,0.0,10,228.0,A,117,93
210,0,0.0,10,,A,117,101
212,0,0.0,10,,A,117,111
214,0,1373.0,10,423.0,A,117,126
216,0,2045.0,10,893.0,A,117,132
218,0,1011.0,10,444.0,A,117,146
220,0,1620.0,10,365.0,A,117,154
222,0,1152.0,10,568.0,A,117,163
224,0,0.0,10,,A,117,166
226,0,1925.0,10,1341.0,A,117,177
228,0,2103.0,10,730.0,A,117,184
230,0,0.0,10,,A,117,186
232,0,669.0,10,669.0,A,117,204
234,0,1536.0,10,752.0,A,117,224
236,0,1947.0,10,1475.0,A,117,238
239,0,597.0,30,365.0,A,117,27
241,0,623.0,30,437.0,A,117,66
243,0,2125.0,30,614.0,A,117,69
245,0,1511.0,30,463.0,A,117,78
247,0,717.0,30,518.0,A,117,79
249,0,2092.0,30,772.0,A,117,90
251,0,1055.0,30,830.0,A,117,98
253,0,0.0,30,,A,117,107
255,0,0.0,30,,A,117,110
257,0,1263.0,30,311.0,A,117,127
259,0,2138.0,30,302.0,A,117,129
261,0,1850.0,30,317.0,A,117,136
263,0,0.0,30,,A,117,143
265,0,1113.0,30,392.0,A,117,155
267,0,0.0,30,,A,117,161
269,0,437.0,30,437.0,A,117,182
271,0,1154.0,30,285.0,A,117,190
273,0,1258.0,30,297.0,A,117,192
275,0,1687.0,30,1407.0,A,117,203
277,0,703.0,30,266.0,A,117,213
279,0,612.0,30,397.0,A,117,216
281,0,1897.0,30,947.0,A,117,220
283,0,1221.0,30,629.0,A,117,236
286,0,2106.0,05,679.0,B,117,0
288,0,1851.0,05,327.0,B,117,8
290,0,1808.0,05,265.0,B,117,24
292,0,1977.0,05,311.0,B,117,61
294,0,1976.0,05,860.0,B,117,77
296,0,0.0,05,,B,117,81
298,0,2111.0,05,445.0,B,117,85
300,0,1182.0,05,1182.0,B,117,91
302,0,0.0,05,,B,117,95
304,0,0.0,05,,B,117,102
306,0,1978.0,05,1752.0,B,117,116
308,0,0.0,05,,B,117,117
310,0,1551.0,05,398.0,B,117,128
312,0,2005.0,05,597.0,B,117,139
314,0,1080.0,05,361.0,B,117,140
316,0,0.0,05,818.0,B,117,165
318,0,670.0,05,670.0,B,117,169
320,0,0.0,05,,B,117,173
322,0,0.0,05,,B,117,185
324,0,1958.0,05,710.0,B,117,187
326,0,950.0,05,753.0,B,117,205
328,0,0.0,05,,B,117,210
330,0,2009.0,05,417.0,B,117,215
332,0,0.0,05,,B,117,237
334,0,508.0,05,508.0,B,117,239
337,0,0.0,10,1059.0,B,117,22
339,0,1900.0,10,314.0,B,117,26
341,0,0.0,10,321.0,B,117,63
343,0,0.0,10,749.0,B,117,70
345,0,0.0,10,,B,117,72
347,0,1720.0,10,739.0,B,117,80
349,0,1950.0,10,613.0,B,117,87
351,0,597.0,10,346.0,B,117,96
353,0,0.0,10,,B,117,99
355,0,0.0,10,1346.0,B,117,100
357,0,0.0,10,,B,117,105
359,0,0.0,10,,B,117,118
361,0,2079.0,10,711.0,B,117,133
363,0,0.0,10,,B,117,147
365,0,0.0,10,,B,117,148
367,0,2076.0,10,734.0,B,117,150
369,0,1657.0,10,724.0,B,117,158
371,0,634.0,10,456.0,B,117,172
373,0,1514.0,10,675.0,B,117,174
375,0,0.0,10,498.0,B,117,195
377,0,0.0,10,,B,117,197
379,0,1603.0,10,1408.0,B,117,206
381,0,0.0,10,,B,117,211
383,0,0.0,10,,B,117,222
385,0,0.0,10,,B,117,226
387,0,2041.0,10,837.0,B,117,234
390,0,1885.0,30,282.0,B,117,5
392,0,1975.0,30,358.0,B,117,6
394,0,1070.0,30,278.0,B,117,14
396,0,1191.0,30,374.0,B,117,29
398,0,0.0,30,,B,117,60
400,0,1645.0,30,664.0,B,117,71
402,0,1962.0,30,632.0,B,117,86
404,0,0.0,30,817.0,B,117,104
406,0,1989.0,30,907.0,B,117,106
408,0,0.0,30,,B,117,112
410,0,0.0,30,,B,117,115
412,0,1954.0,30,391.0,B,117,121
414,0,0.0,30,,B,117,153
416,0,0.0,30,1361.0,B,117,157
418,0,0.0,30,1568.0,B,117,164
420,0,0.0,30,,B,117,179
422,0,1301.0,30,300.0,B,117,201
424,0,1658.0,30,882.0,B,117,209
426,0,0.0,30,280.0,B,117,214
428,0,2059.0,30,848.0,B,117,229
430,0,0.0,30,,B,117,230
1,1,1466.0,05,297.0,A,118,25
3,1,1496.0,05,371.0,A,118,30
5,1,1617.0,05,321.0,A,118,31
7,1,1389.0,05,338.0,A,118,65
9,1,1476.0,05,313.0,A,118,122
11,1,1475.0,05,326.0,A,118,123
13,1,1465.0,05,310.0,A,118,135
15,1,1603.0,05,345.0,A,118,170
17,1,1616.0,05,462.0,A,118,198
19,1,1604.0,05,376.0,A,118,233
21,1,1612.0,05,372.0,A,118,235
24,1,1606.0,10,464.0,A,118,20
26,1,1466.0,10,415.0,A,118,28
28,1,1230.0,10,300.0,A,118,34
30,1,1418.0,10,345.0,A,118,51
32,1,1425.0,10,310.0,A,118,83
34,1,1361.0,10,325.0,A,118,171
36,1,1391.0,10,320.0,A,118,184
38,1,1432.0,10,355.0,A,118,186
41,1,1513.0,30,307.0,A,118,3
43,1,1400.0,30,353.0,A,118,27
45,1,1337.0,30,398.0,A,118,35
47,1,1535.0,30,325.0,A,118,49
49,1,1377.0,30,387.0,A,118,78
51,1,1264.0,30,314.0,A,118,79
53,1,1545.0,30,378.0,A,118,89
55,1,1576.0,30,400.0,A,118,90
57,1,1492.0,30,310.0,A,118,155
59,1,1326.0,30,284.0,A,118,175
61,1,1494.0,30,358.0,A,118,182
63,1,1510.0,30,411.0,A,118,190
65,1,1603.0,30,361.0,A,118,192
67,1,1557.0,30,347.0,A,118,203
69,1,1591.0,30,374.0,A,118,216
71,1,1605.0,30,515.0,A,118,225
74,1,2235.0,05,313.0,B,118,18
76,1,2205.0,05,363.0,B,118,24
78,1,2150.0,05,311.0,B,118,32
80,1,2254.0,05,502.0,B,118,64
82,1,2111.0,05,303.0,B,118,102
84,1,2186.0,05,395.0,B,118,116
86,1,1887.0,05,402.0,B,118,152
88,1,2042.0,05,343.0,B,118,169
90,1,1975.0,05,353.0,B,118,173
92,1,1899.0,05,351.0,B,118,185
94,1,1997.0,05,398.0,B,118,187
96,1,2252.0,05,558.0,B,118,205
98,1,2027.0,05,447.0,B,118,215
100,1,2031.0,05,516.0,B,118,231
103,1,2236.0,10,412.0,B,118,17
105,1,2257.0,10,410.0,B,118,40
107,1,2104.0,10,343.0,B,118,53
109,1,2113.0,10,404.0,B,118,70
111,1,2076.0,10,322.0,B,118,87
113,1,2213.0,10,405.0,B,118,99
115,1,2128.0,10,331.0,B,118,105
117,1,2072.0,10,403.0,B,118,172
119,1,1890.0,10,381.0,B,118,174
121,1,1933.0,10,449.0,B,118,188
123,1,2270.0,10,478.0,B,118,206
125,1,2033.0,10,378.0,B,118,222
128,1,2054.0,30,365.0,B,118,11
130,1,2161.0,30,333.0,B,118,38
132,1,2248.0,30,326.0,B,118,48
134,1,1959.0,30,312.0,B,118,52
136,1,1825.0,30,309.0,B,118,57
138,1,1923.0,30,307.0,B,118,58
140,1,1977.0,30,302.0,B,118,60
142,1,2122.0,30,432.0,B,118,67
144,1,2150.0,30,492.0,B,118,71
146,1,2141.0,30,377.0,B,118,86
148,1,2161.0,30,382.0,B,118,94
150,1,1949.0,30,307.0,B,118,104
152,1,2015.0,30,296.0,B,118,106
154,1,2111.0,30,390.0,B,118,112
156,1,2162.0,30,357.0,B,118,115
158,1,2140.0,30,370.0,B,118,121
160,1,2004.0,30,379.0,B,118,142
162,1,1960.0,30,338.0,B,118,149
164,1,2002.0,30,372.0,B,118,153
166,1,1837.0,30,328.0,B,118,189
168,1,1959.0,30,317.0,B,118,201
170,1,1891.0,30,354.0,B,118,229
172,1,2210.0,30,343.0,B,118,232
175,0,1393.0,05,280.0,A,118,1
177,0,1501.0,05,512.0,A,118,4
179,0,1602.0,05,381.0,A,118,12
181,0,1478.0,05,408.0,A,118,19
183,0,1312.0,05,396.0,A,118,37
185,0,658.0,05,299.0,A,118,44
187,0,1519.0,05,314.0,A,118,47
189,0,1451.0,05,490.0,A,118,75
191,0,1477.0,05,387.0,A,118,76
193,0,1514.0,05,494.0,A,118,84
195,0,1435.0,05,283.0,A,118,88
197,0,1269.0,05,580.0,A,118,97
199,0,1326.0,05,566.0,A,118,108
201,0,1583.0,05,448.0,A,118,109
203,0,1416.0,05,594.0,A,118,113
205,0,661.0,05,451.0,A,118,119
207,0,1574.0,05,362.0,A,118,120
209,0,1566.0,05,521.0,A,118,131
211,0,1469.0,05,378.0,A,118,156
213,0,1204.0,05,409.0,A,118,167
215,0,1264.0,05,258.0,A,118,168
217,0,1520.0,05,546.0,A,118,176
219,0,823.0,05,341.0,A,118,183
221,0,1495.0,05,399.0,A,118,193
223,0,953.0,05,348.0,A,118,200
225,0,1612.0,05,503.0,A,118,207
227,0,647.0,05,437.0,A,118,218
229,0,1415.0,05,421.0,A,118,219
231,0,1485.0,05,344.0,A,118,223
234,0,1466.0,10,512.0,A,118,7
236,0,1112.0,10,342.0,A,118,13
238,0,562.0,10,479.0,A,118,23
240,0,1116.0,10,348.0,A,118,41
242,0,832.0,10,324.0,A,118,54
244,0,1607.0,10,331.0,A,118,55
246,0,1468.0,10,676.0,A,118,68
248,0,1409.0,10,507.0,A,118,73
250,0,1362.0,10,351.0,A,118,74
252,0,1528.0,10,345.0,A,118,82
254,0,1431.0,10,527.0,A,118,92
256,0,1443.0,10,393.0,A,118,93
258,0,874.0,10,316.0,A,118,101
260,0,1306.0,10,409.0,A,118,111
262,0,1473.0,10,546.0,A,118,114
264,0,835.0,10,556.0,A,118,126
266,0,1485.0,10,497.0,A,118,132
268,0,924.0,10,343.0,A,118,137
270,0,1370.0,10,549.0,A,118,138
272,0,1358.0,10,345.0,A,118,146
274,0,1499.0,10,416.0,A,118,154
276,0,1380.0,10,494.0,A,118,163
278,0,823.0,10,549.0,A,118,166
280,0,1096.0,10,529.0,A,118,177
282,0,1552.0,10,568.0,A,118,196
284,0,1506.0,10,891.0,A,118,202
286,0,1574.0,10,468.0,A,118,204
288,0,1367.0,10,394.0,A,118,212
290,0,1548.0,10,650.0,A,118,217
292,0,1462.0,10,884.0,A,118,224
294,0,1598.0,10,619.0,A,118,228
296,0,1483.0,10,639.0,A,118,238
299,0,1505.0,30,415.0,A,118,2
301,0,1444.0,30,323.0,A,118,15
303,0,1066.0,30,368.0,A,118,21
305,0,1266.0,30,381.0,A,118,33
307,0,1246.0,30,366.0,A,118,39
309,0,1563.0,30,343.0,A,118,59
311,0,1503.0,30,593.0,A,118,66
313,0,1576.0,30,504.0,A,118,69
315,0,1449.0,30,430.0,A,118,98
317,0,1361.0,30,321.0,A,118,103
319,0,447.0,30,322.0,A,118,107
321,0,1543.0,30,385.0,A,118,110
323,0,1532.0,30,343.0,A,118,127
325,0,1050.0,30,378.0,A,118,129
327,0,1458.0,30,692.0,A,118,136
329,0,1507.0,30,365.0,A,118,143
331,0,1312.0,30,616.0,A,118,145
333,0,1584.0,30,388.0,A,118,151
335,0,1537.0,30,352.0,A,118,159
337,0,1130.0,30,375.0,A,118,161
339,0,1432.0,30,475.0,A,118,199
341,0,1548.0,30,522.0,A,118,213
343,0,1489.0,30,388.0,A,118,220
345,0,1582.0,30,348.0,A,118,236
348,0,1936.0,05,270.0,B,118,0
350,0,2195.0,05,397.0,B,118,8
352,0,2213.0,05,406.0,B,118,9
354,0,0.0,05,357.0,B,118,36
356,0,1252.0,05,522.0,B,118,43
358,0,1848.0,05,412.0,B,118,46
360,0,2100.0,05,499.0,B,118,56
362,0,1924.0,05,343.0,B,118,61
364,0,2189.0,05,419.0,B,118,77
366,0,1263.0,05,328.0,B,118,81
368,0,1897.0,05,488.0,B,118,85
370,0,1909.0,05,350.0,B,118,91
372,0,2135.0,05,472.0,B,118,95
374,0,2085.0,05,409.0,B,118,117
376,0,2063.0,05,473.0,B,118,128
378,0,1528.0,05,587.0,B,118,130
380,0,1512.0,05,430.0,B,118,134
382,0,1469.0,05,504.0,B,118,139
384,0,2155.0,05,451.0,B,118,140
386,0,1269.0,05,453.0,B,118,165
388,0,2114.0,05,580.0,B,118,178
390,0,1886.0,05,413.0,B,118,181
392,0,542.0,05,320.0,B,118,191
394,0,2049.0,05,489.0,B,118,210
396,0,2054.0,05,674.0,B,118,237
398,0,2056.0,05,494.0,B,118,239
401,0,2137.0,10,601.0,B,118,10
403,0,2153.0,10,704.0,B,118,16
405,0,2107.0,10,541.0,B,118,22
407,0,711.0,10,294.0,B,118,26
409,0,2130.0,10,288.0,B,118,42
411,0,2051.0,10,495.0,B,118,45
413,0,1990.0,10,397.0,B,118,50
415,0,452.0,10,279.0,B,118,63
417,0,1759.0,10,514.0,B,118,72
419,0,1940.0,10,581.0,B,118,80
421,0,2083.0,10,498.0,B,118,96
423,0,2066.0,10,371.0,B,118,100
425,0,2052.0,10,373.0,B,118,118
427,0,2228.0,10,623.0,B,118,125
429,0,1921.0,10,571.0,B,118,133
431,0,1934.0,10,390.0,B,118,144
433,0,2113.0,10,668.0,B,118,147
435,0,2121.0,10,613.0,B,118,148
437,0,1569.0,10,660.0,B,118,150
439,0,2197.0,10,581.0,B,118,158
441,0,2062.0,10,698.0,B,118,162
443,0,1043.0,10,520.0,B,118,195
445,0,1566.0,10,536.0,B,118,197
447,0,1419.0,10,535.0,B,118,208
449,0,2220.0,10,444.0,B,118,211
451,0,2049.0,10,1086.0,B,118,226
453,0,1258.0,10,580.0,B,118,227
