"reward","sequence","accuracy","subject","too_slow","trial_time","seq_keys","pressed","trial_num","max_time","block","acc","mt","rew","rt","seq","dlpfc_clf_accs","m1_clf_accs","sma_clf_accs","row","speed","error","n_keys","eight_IKI"
5,"B",0,104,1,2268,"[2, 1, 4, 2, 3, 4, 1, 3]","[2, 1, 4, 2, 3, 4, 1]",0,1765,1,0,1735,5,301,"B",TRUE,FALSE,FALSE,1,3.08641975308642,0,7,NA
5,"A",1,104,0,1519,"[3, 2, 4, 1, 2, 4, 3, 1]","[3, 2, 4, 1, 2, 4, 3, 1]",1,1531,1,1,1519,5,327,"A",TRUE,FALSE,FALSE,2,5.26662277814352,0,8,137
30,"A",0,104,1,2034,"[3, 2, 4, 1, 2, 4, 3, 1]","[3, 2, 4, 1, 2]",2,1531,1,0,1378,30,434,"A",TRUE,FALSE,FALSE,3,2.45821042281219,0,5,NA
30,"A",0,104,1,2034,"[3, 2, 4, 1, 2, 4, 3, 1]","[3, 2, 4, 1, 2, 4, 3]",3,1531,1,0,1343,30,336,"A",FALSE,FALSE,TRUE,4,3.44149459193707,0,7,NA
5,"A",1,104,0,1487,"[3, 2, 4, 1, 2, 4, 3, 1]","[3, 2, 4, 1, 2, 4, 3, 1]",4,1531,1,1,1487,5,271,"A",FALSE,FALSE,FALSE,5,5.37995965030262,0,8,146
30,"B",0,104,1,2268,"[2, 1, 4, 2, 3, 4, 1, 3]","[2, 1, 4, 2, 3, 4, 1]",5,1765,1,0,1598,30,395,"B",TRUE,FALSE,TRUE,6,3.08641975308642,0,7,NA
30,"B",1,104,0,1666,"[2, 1, 4, 2, 3, 4, 1, 3]","[2, 1, 4, 2, 3, 4, 1, 3]",6,1765,1,1,1666,30,329,"B",TRUE,FALSE,TRUE,7,4.80192076830732,0,8,230
10,"A",1,104,0,1476,"[3, 2, 4, 1, 2, 4, 3, 1]","[3, 2, 4, 1, 2, 4, 3, 1]",7,1531,1,1,1476,10,321,"A",FALSE,FALSE,FALSE,8,5.42005420054201,0,8,135
5,"B",0,104,1,2268,"[2, 1, 4, 2, 3, 4, 1, 3]","[2, 1, 4, 2, 3, 4, 1]",8,1765,1,0,1560,5,353,"B",TRUE,TRUE,TRUE,9,3.08641975308642,0,7,NA
5,"B",1,104,0,1534,"[2, 1, 4, 2, 3, 4, 1, 3]","[2, 1, 4, 2, 3, 4, 1, 3]",9,1765,1,1,1534,5,307,"B",TRUE,FALSE,FALSE,10,5.21512385919166,0,8,229
10,"B",1,104,0,1648,"[2, 1, 4, 2, 3, 4, 1, 3]","[2, 1, 4, 2, 3, 4, 1, 3]",10,1765,1,1,1648,10,330,"B",FALSE,TRUE,TRUE,11,4.85436893203883,0,8,281
30,"B",1,104,0,1538,"[2, 1, 4, 2, 3, 4, 1, 3]","[2, 1, 4, 2, 3, 4, 1, 3]",11,1765,1,1,1538,30,333,"B",FALSE,TRUE,FALSE,12,5.20156046814044,0,8,174
5,"A",0,104,1,2034,"[3, 2, 4, 1, 2, 4, 3, 1]","[3, 2, 4, 1, 2, 4, 3]",12,1531,1,0,1318,5,293,"A",FALSE,TRUE,FALSE,13,3.44149459193707,0,7,NA
10,"A",1,104,0,1475,"[3, 2, 4, 1, 2, 4, 3, 1]","[3, 2, 4, 1, 2, 4, 3, 1]",13,1531,1,1,1475,10,305,"A",TRUE,TRUE,TRUE,14,5.42372881355932,0,8,160
30,"B",1,104,0,1748,"[2, 1, 4, 2, 3, 4, 1, 3]","[2, 1, 4, 2, 3, 4, 1, 3]",14,1765,1,1,1748,30,310,"B",FALSE,TRUE,FALSE,15,4.5766590389016,0,8,308
30,"A",0,104,0,1996,"[3, 2, 4, 1, 2, 4, 3, 1]","[3, 2, 4, 1, 2, 4, 3, 2]",15,1531,1,0,1470,30,321,"A",TRUE,TRUE,TRUE,16,4.00801603206413,1,8,NA
10,"B",0,104,1,2268,"[2, 1, 4, 2, 3, 4, 1, 3]","[2, 1, 4, 2, 3, 4, 1]",16,1765,1,0,1742,10,327,"B",FALSE,TRUE,FALSE,17,3.08641975308642,0,7,NA
10,"B",1,104,0,1633,"[2, 1, 4, 2, 3, 4, 1, 3]","[2, 1, 4, 2, 3, 4, 1, 3]",17,1765,1,1,1633,10,340,"B",FALSE,FALSE,TRUE,18,4.89895897121862,0,8,172
5,"B",1,104,0,1426,"[2, 1, 4, 2, 3, 4, 1, 3]","[2, 1, 4, 2, 3, 4, 1, 3]",18,1765,1,1,1426,5,281,"B",FALSE,FALSE,FALSE,19,5.61009817671809,0,8,197
5,"A",1,104,0,1507,"[3, 2, 4, 1, 2, 4, 3, 1]","[3, 2, 4, 1, 2, 4, 3, 1]",19,1531,1,1,1507,5,311,"A",FALSE,TRUE,TRUE,20,5.3085600530856,0,8,173
10,"A",0,104,1,2034,"[3, 2, 4, 1, 2, 4, 3, 1]","[3, 2, 4, 1, 2, 4, 3]",20,1531,1,0,1511,10,519,"A",FALSE,FALSE,FALSE,21,3.44149459193707,0,7,NA
30,"A",0,104,1,2034,"[3, 2, 4, 1, 2, 4, 3, 1]","[3, 2, 4, 1, 2, 4, 3]",21,1531,1,0,1515,30,349,"A",FALSE,FALSE,TRUE,22,3.44149459193707,0,7,NA
10,"B",0,104,0,1998,"[2, 1, 4, 2, 3, 4, 1, 3]","[2, 1, 4, 2, 3, 4, 1, 2]",22,1765,1,0,1293,10,350,"B",TRUE,TRUE,TRUE,23,4.004004004004,1,8,NA
10,"A",0,104,0,NA,"[3, 2, 4, 1, 2, 4, 3, 1]","[2]",23,1531,1,0,0,10,356,"A",FALSE,FALSE,FALSE,24,NA,1,1,NA
5,"B",1,104,0,1727,"[2, 1, 4, 2, 3, 4, 1, 3]","[2, 1, 4, 2, 3, 4, 1, 3]",24,1765,1,1,1727,5,371,"B",TRUE,TRUE,FALSE,25,4.63231036479444,0,8,183
5,"A",0,104,1,2037,"[3, 2, 4, 1, 2, 4, 3, 1]","[3, 2, 4, 1, 2, 4, 3]",25,1531,1,0,1426,5,365,"A",TRUE,FALSE,TRUE,26,3.43642611683849,0,7,NA
10,"B",1,104,0,1543,"[2, 1, 4, 2, 3, 4, 1, 3]","[2, 1, 4, 2, 3, 4, 1, 3]",26,1765,1,1,1543,10,304,"B",FALSE,TRUE,TRUE,27,5.18470511989631,0,8,168
30,"A",0,104,0,1683,"[3, 2, 4, 1, 2, 4, 3, 1]","[3, 2, 4, 1, 2, 2]",27,1531,1,0,969,30,323,"A",TRUE,TRUE,FALSE,28,3.5650623885918,1,6,NA
10,"A",1,104,0,1426,"[3, 2, 4, 1, 2, 4, 3, 1]","[3, 2, 4, 1, 2, 4, 3, 1]",28,1531,1,1,1426,10,317,"A",TRUE,FALSE,TRUE,29,5.61009817671809,0,8,150
30,"B",1,104,0,1535,"[2, 1, 4, 2, 3, 4, 1, 3]","[2, 1, 4, 2, 3, 4, 1, 3]",29,1765,1,1,1535,30,315,"B",FALSE,TRUE,FALSE,30,5.21172638436482,0,8,208
5,"A",0,104,1,2034,"[3, 2, 4, 1, 2, 4, 3, 1]","[3, 2, 4, 1, 2, 4, 3]",30,1531,2,0,1416,5,315,"A",TRUE,FALSE,FALSE,31,3.44149459193707,0,7,NA
5,"A",1,104,0,1352,"[3, 2, 4, 1, 2, 4, 3, 1]","[3, 2, 4, 1, 2, 4, 3, 1]",31,1531,2,1,1352,5,309,"A",TRUE,TRUE,TRUE,32,5.91715976331361,0,8,126
5,"B",1,104,0,1453,"[2, 1, 4, 2, 3, 4, 1, 3]","[2, 1, 4, 2, 3, 4, 1, 3]",32,1765,2,1,1453,5,326,"B",FALSE,TRUE,FALSE,33,5.50584996558844,0,8,203
30,"A",1,104,0,1470,"[3, 2, 4, 1, 2, 4, 3, 1]","[3, 2, 4, 1, 2, 4, 3, 1]",33,1531,2,1,1470,30,367,"A",TRUE,TRUE,TRUE,34,5.4421768707483,0,8,146
10,"A",1,104,0,1306,"[3, 2, 4, 1, 2, 4, 3, 1]","[3, 2, 4, 1, 2, 4, 3, 1]",34,1531,2,1,1306,10,280,"A",FALSE,FALSE,FALSE,35,6.12557427258806,0,8,147
30,"A",0,104,0,1526,"[3, 2, 4, 1, 2, 4, 3, 1]","[3, 2, 4, 1, 2, 3]",35,1531,2,0,769,30,296,"A",FALSE,FALSE,TRUE,36,3.93184796854522,1,6,NA
5,"B",1,104,0,1502,"[2, 1, 4, 2, 3, 4, 1, 3]","[2, 1, 4, 2, 3, 4, 1, 3]",36,1765,2,1,1502,5,285,"B",FALSE,FALSE,TRUE,37,5.32623169107856,0,8,238
5,"A",1,104,0,1362,"[3, 2, 4, 1, 2, 4, 3, 1]","[3, 2, 4, 1, 2, 4, 3, 1]",37,1531,2,1,1362,5,309,"A",TRUE,FALSE,TRUE,38,5.87371512481645,0,8,122
30,"B",0,104,1,2268,"[2, 1, 4, 2, 3, 4, 1, 3]","[2, 1, 4, 2, 3, 4, 1]",38,1765,2,0,1659,30,350,"B",FALSE,FALSE,FALSE,39,3.08641975308642,0,7,NA
30,"A",0,104,0,1252,"[3, 2, 4, 1, 2, 4, 3, 1]","[3, 2, 4, 2]",39,1531,2,0,610,30,293,"A",TRUE,TRUE,FALSE,40,3.19488817891374,1,4,NA
10,"B",1,104,0,1662,"[2, 1, 4, 2, 3, 4, 1, 3]","[2, 1, 4, 2, 3, 4, 1, 3]",40,1765,2,1,1662,10,284,"B",TRUE,TRUE,TRUE,41,4.81347773766546,0,8,191
10,"A",0,104,1,2034,"[3, 2, 4, 1, 2, 4, 3, 1]","[3, 2, 4, 1, 2, 4]",41,1531,2,0,1492,10,268,"A",FALSE,FALSE,FALSE,42,2.94985250737463,0,6,NA
10,"B",1,104,0,1524,"[2, 1, 4, 2, 3, 4, 1, 3]","[2, 1, 4, 2, 3, 4, 1, 3]",42,1765,2,1,1524,10,315,"B",FALSE,FALSE,FALSE,43,5.249343832021,0,8,168
5,"B",1,104,0,1701,"[2, 1, 4, 2, 3, 4, 1, 3]","[2, 1, 4, 2, 3, 4, 1, 3]",43,1765,2,1,1701,5,285,"B",TRUE,FALSE,FALSE,44,4.70311581422693,0,8,218
5,"A",1,104,0,1374,"[3, 2, 4, 1, 2, 4, 3, 1]","[3, 2, 4, 1, 2, 4, 3, 1]",44,1531,2,1,1374,5,281,"A",FALSE,TRUE,FALSE,45,5.82241630276565,0,8,135
10,"B",1,104,0,1430,"[2, 1, 4, 2, 3, 4, 1, 3]","[2, 1, 4, 2, 3, 4, 1, 3]",45,1765,2,1,1430,10,280,"B",FALSE,FALSE,FALSE,46,5.59440559440559,0,8,205
5,"B",1,104,0,1521,"[2, 1, 4, 2, 3, 4, 1, 3]","[2, 1, 4, 2, 3, 4, 1, 3]",46,1765,2,1,1521,5,282,"B",TRUE,TRUE,TRUE,47,5.25969756738987,0,8,204
5,"A",0,104,1,2034,"[3, 2, 4, 1, 2, 4, 3, 1]","[3, 2, 4, 1, 2, 4, 3]",47,1531,2,0,1466,5,310,"A",FALSE,FALSE,FALSE,48,3.44149459193707,0,7,NA
30,"B",1,104,0,1423,"[2, 1, 4, 2, 3, 4, 1, 3]","[2, 1, 4, 2, 3, 4, 1, 3]",48,1765,2,1,1423,30,268,"B",FALSE,FALSE,FALSE,49,5.621925509487,0,8,151
30,"A",1,104,0,1361,"[3, 2, 4, 1, 2, 4, 3, 1]","[3, 2, 4, 1, 2, 4, 3, 1]",49,1531,2,1,1361,30,267,"A",FALSE,TRUE,FALSE,50,5.87803085966201,0,8,138
10,"B",1,104,0,1316,"[2, 1, 4, 2, 3, 4, 1, 3]","[2, 1, 4, 2, 3, 4, 1, 3]",50,1765,2,1,1316,10,279,"B",TRUE,FALSE,TRUE,51,6.0790273556231,0,8,167
10,"A",1,104,0,1413,"[3, 2, 4, 1, 2, 4, 3, 1]","[3, 2, 4, 1, 2, 4, 3, 1]",51,1531,2,1,1413,10,330,"A",TRUE,FALSE,TRUE,52,5.6617126680821,0,8,160
30,"B",1,104,0,1552,"[2, 1, 4, 2, 3, 4, 1, 3]","[2, 1, 4, 2, 3, 4, 1, 3]",52,1765,2,1,1552,30,395,"B",TRUE,TRUE,TRUE,53,5.15463917525773,0,8,220
10,"B",1,104,0,1341,"[2, 1, 4, 2, 3, 4, 1, 3]","[2, 1, 4, 2, 3, 4, 1, 3]",53,1765,2,1,1341,10,274,"B",TRUE,TRUE,TRUE,54,5.96569724086503,0,8,148
10,"A",1,104,0,1513,"[3, 2, 4, 1, 2, 4, 3, 1]","[3, 2, 4, 1, 2, 4, 3, 1]",54,1531,2,1,1512,10,379,"A",FALSE,TRUE,FALSE,55,5.28750826173166,0,8,140
10,"A",1,104,0,1420,"[3, 2, 4, 1, 2, 4, 3, 1]","[3, 2, 4, 1, 2, 4, 3, 1]",55,1531,2,1,1420,10,375,"A",TRUE,TRUE,FALSE,56,5.63380281690141,0,8,142
5,"B",0,104,0,1237,"[2, 1, 4, 2, 3, 4, 1, 3]","[2, 1, 2]",56,1765,2,0,430,5,328,"B",TRUE,FALSE,FALSE,57,2.42522231204527,1,3,NA
30,"B",1,104,0,1621,"[2, 1, 4, 2, 3, 4, 1, 3]","[2, 1, 4, 2, 3, 4, 1, 3]",57,1765,2,1,1621,30,414,"B",TRUE,FALSE,TRUE,58,4.93522516964837,0,8,207
30,"B",1,104,0,1469,"[2, 1, 4, 2, 3, 4, 1, 3]","[2, 1, 4, 2, 3, 4, 1, 3]",58,1765,2,1,1469,30,323,"B",FALSE,FALSE,FALSE,59,5.44588155207624,0,8,173
30,"A",1,104,0,1415,"[3, 2, 4, 1, 2, 4, 3, 1]","[3, 2, 4, 1, 2, 4, 3, 1]",59,1531,2,1,1415,30,324,"A",FALSE,FALSE,FALSE,60,5.65371024734982,0,8,135
30,"B",0,104,1,1928,"[2, 1, 4, 2, 3, 4, 1, 3]","[2, 1, 4, 2, 3, 4]",60,1425,3,0,1259,30,310,"B",TRUE,TRUE,TRUE,61,3.11203319502075,0,6,NA
5,"B",0,104,1,1929,"[2, 1, 4, 2, 3, 4, 1, 3]","[2, 1, 4, 2, 3, 4, 1]",61,1425,3,0,1338,5,283,"B",FALSE,FALSE,FALSE,62,3.62882322446864,0,7,NA
30,"B",0,104,1,1928,"[2, 1, 4, 2, 3, 4, 1, 3]","[2, 1, 4, 2, 3, 4, 1]",62,1425,3,0,1295,30,308,"B",TRUE,FALSE,FALSE,63,3.63070539419087,0,7,NA
10,"B",1,104,0,1229,"[2, 1, 4, 2, 3, 4, 1, 3]","[2, 1, 4, 2, 3, 4, 1, 3]",63,1425,3,1,1229,10,270,"B",FALSE,TRUE,FALSE,64,6.5093572009764,0,8,128
5,"B",0,104,1,1928,"[2, 1, 4, 2, 3, 4, 1, 3]","[2, 1, 4, 2, 3, 4, 1]",64,1425,3,0,1213,5,286,"B",TRUE,TRUE,FALSE,65,3.63070539419087,0,7,NA
5,"A",0,104,0,1529,"[3, 2, 4, 1, 2, 4, 3, 1]","[3, 2, 4, 1, 2, 3]",65,1326,3,0,762,5,292,"A",TRUE,FALSE,TRUE,66,3.9241334205363,1,6,NA
30,"A",0,104,1,1831,"[3, 2, 4, 1, 2, 4, 3, 1]","[3, 2, 4, 1, 2, 4, 3]",66,1326,3,0,1295,30,300,"A",FALSE,FALSE,TRUE,67,3.82304751501912,0,7,NA
30,"B",0,104,1,1928,"[2, 1, 4, 2, 3, 4, 1, 3]","[2, 1, 4, 2, 3, 4]",67,1425,3,0,1328,30,303,"B",TRUE,FALSE,FALSE,68,3.11203319502075,0,6,NA
10,"A",1,104,0,1276,"[3, 2, 4, 1, 2, 4, 3, 1]","[3, 2, 4, 1, 2, 4, 3, 1]",68,1326,3,1,1276,10,262,"A",FALSE,FALSE,FALSE,69,6.26959247648903,0,8,146
30,"A",1,104,0,1311,"[3, 2, 4, 1, 2, 4, 3, 1]","[3, 2, 4, 1, 2, 4, 3, 1]",69,1326,3,1,1311,30,279,"A",TRUE,FALSE,FALSE,70,6.1022120518688,0,8,127
10,"B",0,104,1,1928,"[2, 1, 4, 2, 3, 4, 1, 3]","[2, 1, 4, 2, 3, 4, 1]",70,1425,3,0,1313,10,365,"B",FALSE,FALSE,FALSE,71,3.63070539419087,0,7,NA
30,"B",0,104,1,1928,"[2, 1, 4, 2, 3, 4, 1, 3]","[2, 1, 4, 2, 3, 4, 1]",71,1425,3,0,1276,30,339,"B",TRUE,TRUE,FALSE,72,3.63070539419087,0,7,NA
10,"B",1,104,0,1390,"[2, 1, 4, 2, 3, 4, 1, 3]","[2, 1, 4, 2, 3, 4, 1, 3]",72,1425,3,1,1390,10,300,"B",FALSE,FALSE,FALSE,73,5.75539568345324,0,8,204
10,"A",0,104,1,1829,"[3, 2, 4, 1, 2, 4, 3, 1]","[3, 2, 4, 1, 2, 4]",73,1326,3,0,1190,10,309,"A",FALSE,FALSE,FALSE,74,3.28048113723346,0,6,NA
10,"A",0,104,1,1829,"[3, 2, 4, 1, 2, 4, 3, 1]","[3, 2, 4, 1, 2, 4]",74,1326,3,0,1254,10,302,"A",TRUE,TRUE,TRUE,75,3.28048113723346,0,6,NA
5,"A",0,104,0,1406,"[3, 2, 4, 1, 2, 4, 3, 1]","[3, 2, 4, 1, 3]",75,1326,3,0,640,5,296,"A",FALSE,TRUE,TRUE,76,3.55618776671408,1,5,NA
5,"A",0,104,1,1831,"[3, 2, 4, 1, 2, 4, 3, 1]","[3, 2, 4, 1, 2, 4]",76,1326,3,0,1261,5,353,"A",FALSE,TRUE,TRUE,77,3.27689787001638,0,6,NA
5,"B",1,104,0,1422,"[2, 1, 4, 2, 3, 4, 1, 3]","[2, 1, 4, 2, 3, 4, 1, 3]",77,1425,3,1,1422,5,392,"B",TRUE,FALSE,FALSE,78,5.62587904360056,0,8,135
30,"A",1,104,0,1287,"[3, 2, 4, 1, 2, 4, 3, 1]","[3, 2, 4, 1, 2, 4, 3, 1]",78,1326,3,1,1287,30,315,"A",FALSE,FALSE,TRUE,79,6.21600621600622,0,8,122
30,"A",0,104,1,1830,"[3, 2, 4, 1, 2, 4, 3, 1]","[3, 2, 4, 1, 2, 4, 3]",79,1326,3,0,1314,30,411,"A",TRUE,TRUE,TRUE,80,3.82513661202186,0,7,NA
10,"B",1,104,0,1328,"[2, 1, 4, 2, 3, 4, 1, 3]","[2, 1, 4, 2, 3, 4, 1, 3]",80,1425,3,1,1328,10,329,"B",TRUE,FALSE,FALSE,81,6.02409638554217,0,8,150
5,"B",0,104,1,1930,"[2, 1, 4, 2, 3, 4, 1, 3]","[2, 1, 4, 2, 3, 4, 1]",81,1425,3,0,1402,5,331,"B",TRUE,TRUE,FALSE,82,3.62694300518135,0,7,NA
10,"A",0,104,0,1440,"[3, 2, 4, 1, 2, 4, 3, 1]","[3, 2, 4, 1, 2, 3]",82,1326,3,0,754,10,334,"A",TRUE,TRUE,FALSE,83,4.16666666666667,1,6,NA
10,"A",0,104,1,1832,"[3, 2, 4, 1, 2, 4, 3, 1]","[3, 2, 4, 1, 2]",83,1326,3,0,1237,10,413,"A",TRUE,TRUE,FALSE,84,2.7292576419214,0,5,NA
5,"A",0,104,0,1521,"[3, 2, 4, 1, 2, 4, 3, 1]","[3, 2, 4, 1, 4]",84,1326,3,0,658,5,286,"A",TRUE,FALSE,FALSE,85,3.28731097961867,1,5,NA
5,"B",1,104,0,1412,"[2, 1, 4, 2, 3, 4, 1, 3]","[2, 1, 4, 2, 3, 4, 1, 3]",85,1425,3,1,1412,5,327,"B",TRUE,FALSE,TRUE,86,5.6657223796034,0,8,172
30,"B",1,104,0,1384,"[2, 1, 4, 2, 3, 4, 1, 3]","[2, 1, 4, 2, 3, 4, 1, 3]",86,1425,3,1,1384,30,293,"B",TRUE,TRUE,TRUE,87,5.78034682080925,0,8,295
10,"B",1,104,0,1380,"[2, 1, 4, 2, 3, 4, 1, 3]","[2, 1, 4, 2, 3, 4, 1, 3]",87,1425,3,1,1380,10,338,"B",TRUE,TRUE,FALSE,88,5.79710144927536,0,8,151
5,"A",1,104,0,1283,"[3, 2, 4, 1, 2, 4, 3, 1]","[3, 2, 4, 1, 2, 4, 3, 1]",88,1326,3,1,1283,5,292,"A",TRUE,TRUE,TRUE,89,6.23538581449727,0,8,139
30,"A",0,104,0,1801,"[3, 2, 4, 1, 2, 4, 3, 1]","[3, 2, 4, 1, 2, 4, 3, 2]",89,1326,3,0,1262,30,273,"A",TRUE,TRUE,FALSE,90,4.44197667962243,1,8,NA
30,"A",1,104,0,1301,"[3, 2, 4, 1, 2, 4, 3, 1]","[3, 2, 4, 1, 2, 4, 3, 1]",90,1531,4,NA,NA,NA,NA,NA,NA,NA,NA,91,6.14911606456572,0,8,123
5,"B",1,104,0,1483,"[2, 1, 4, 2, 3, 4, 1, 3]","[2, 1, 4, 2, 3, 4, 1, 3]",91,1765,4,NA,NA,NA,NA,NA,NA,NA,NA,92,5.39447066756575,0,8,300
10,"A",0,104,0,1613,"[3, 2, 4, 1, 2, 4, 3, 1]","[3, 2, 4, 1, 4]",92,1531,4,NA,NA,NA,NA,NA,NA,NA,NA,93,3.09981401115933,1,5,NA
10,"A",0,104,0,1695,"[3, 2, 4, 1, 2, 4, 3, 1]","[3, 2, 4, 1, 2, 2]",93,1531,4,NA,NA,NA,NA,NA,NA,NA,NA,94,3.53982300884956,1,6,NA
30,"B",0,104,0,2150,"[2, 1, 4, 2, 3, 4, 1, 3]","[2, 1, 4, 2, 3, 4, 1, 2]",94,1765,4,NA,NA,NA,NA,NA,NA,NA,NA,95,3.72093023255814,1,8,NA
5,"B",1,104,0,1449,"[2, 1, 4, 2, 3, 4, 1, 3]","[2, 1, 4, 2, 3, 4, 1, 3]",95,1765,4,NA,NA,NA,NA,NA,NA,NA,NA,96,5.52104899930987,0,8,152
10,"B",0,104,0,1604,"[2, 1, 4, 2, 3, 4, 1, 3]","[2, 1, 4, 2, 3, 4, 3]",96,1765,4,NA,NA,NA,NA,NA,NA,NA,NA,97,4.3640897755611,1,7,NA
5,"A",1,104,0,1338,"[3, 2, 4, 1, 2, 4, 3, 1]","[3, 2, 4, 1, 2, 4, 3, 1]",97,1531,4,NA,NA,NA,NA,NA,NA,NA,NA,98,5.97907324364723,0,8,142
30,"A",1,104,0,1490,"[3, 2, 4, 1, 2, 4, 3, 1]","[3, 2, 4, 1, 2, 4, 3, 1]",98,1531,4,NA,NA,NA,NA,NA,NA,NA,NA,99,5.36912751677852,0,8,128
10,"B",0,104,0,1165,"[2, 1, 4, 2, 3, 4, 1, 3]","[2, 1, 2]",99,1765,4,NA,NA,NA,NA,NA,NA,NA,NA,100,2.57510729613734,1,3,NA
10,"B",0,104,1,2268,"[2, 1, 4, 2, 3, 4, 1, 3]","[2, 1, 4, 2, 3, 4, 1]",100,1765,4,NA,NA,NA,NA,NA,NA,NA,NA,101,3.08641975308642,0,7,NA
10,"A",1,104,0,1435,"[3, 2, 4, 1, 2, 4, 3, 1]","[3, 2, 4, 1, 2, 4, 3, 1]",101,1531,4,NA,NA,NA,NA,NA,NA,NA,NA,102,5.57491289198606,0,8,165
5,"B",1,104,0,1543,"[2, 1, 4, 2, 3, 4, 1, 3]","[2, 1, 4, 2, 3, 4, 1, 3]",102,1765,4,NA,NA,NA,NA,NA,NA,NA,NA,103,5.18470511989631,0,8,143
30,"A",0,104,1,2034,"[3, 2, 4, 1, 2, 4, 3, 1]","[3, 2, 4, 1, 2, 4, 3]",103,1531,4,NA,NA,NA,NA,NA,NA,NA,NA,104,3.44149459193707,0,7,NA
30,"B",1,104,0,1552,"[2, 1, 4, 2, 3, 4, 1, 3]","[2, 1, 4, 2, 3, 4, 1, 3]",104,1765,4,NA,NA,NA,NA,NA,NA,NA,NA,105,5.15463917525773,0,8,148
10,"B",1,104,0,1349,"[2, 1, 4, 2, 3, 4, 1, 3]","[2, 1, 4, 2, 3, 4, 1, 3]",105,1765,4,NA,NA,NA,NA,NA,NA,NA,NA,106,5.93031875463306,0,8,148
30,"B",0,104,0,920,"[2, 1, 4, 2, 3, 4, 1, 3]","[2, 3]",106,1765,4,NA,NA,NA,NA,NA,NA,NA,NA,107,2.17391304347826,1,2,NA
30,"A",1,104,0,1439,"[3, 2, 4, 1, 2, 4, 3, 1]","[3, 2, 4, 1, 2, 4, 3, 1]",107,1531,4,NA,NA,NA,NA,NA,NA,NA,NA,108,5.55941626129256,0,8,155
5,"A",0,104,1,2036,"[3, 2, 4, 1, 2, 4, 3, 1]","[3, 2, 4, 1, 2, 4]",108,1531,4,NA,NA,NA,NA,NA,NA,NA,NA,109,2.94695481335953,0,6,NA
5,"A",1,104,0,1417,"[3, 2, 4, 1, 2, 4, 3, 1]","[3, 2, 4, 1, 2, 4, 3, 1]",109,1531,4,NA,NA,NA,NA,NA,NA,NA,NA,110,5.64573041637262,0,8,152
30,"A",1,104,0,1468,"[3, 2, 4, 1, 2, 4, 3, 1]","[3, 2, 4, 1, 2, 4, 3, 1]",110,1531,4,NA,NA,NA,NA,NA,NA,NA,NA,111,5.44959128065395,0,8,145
10,"A",1,104,0,1409,"[3, 2, 4, 1, 2, 4, 3, 1]","[3, 2, 4, 1, 2, 4, 3, 1]",111,1531,4,NA,NA,NA,NA,NA,NA,NA,NA,112,5.6777856635912,0,8,155
30,"B",1,104,0,1445,"[2, 1, 4, 2, 3, 4, 1, 3]","[2, 1, 4, 2, 3, 4, 1, 3]",112,1765,4,NA,NA,NA,NA,NA,NA,NA,NA,113,5.5363321799308,0,8,174
5,"A",1,104,0,1405,"[3, 2, 4, 1, 2, 4, 3, 1]","[3, 2, 4, 1, 2, 4, 3, 1]",113,1531,4,NA,NA,NA,NA,NA,NA,NA,NA,114,5.69395017793594,0,8,125
10,"A",1,104,0,1493,"[3, 2, 4, 1, 2, 4, 3, 1]","[3, 2, 4, 1, 2, 4, 3, 1]",114,1531,4,NA,NA,NA,NA,NA,NA,NA,NA,115,5.35833891493637,0,8,149
30,"B",0,104,1,2268,"[2, 1, 4, 2, 3, 4, 1, 3]","[2, 1, 4, 2, 3, 4, 1]",115,1765,4,NA,NA,NA,NA,NA,NA,NA,NA,116,3.08641975308642,0,7,NA
5,"B",1,104,0,1467,"[2, 1, 4, 2, 3, 4, 1, 3]","[2, 1, 4, 2, 3, 4, 1, 3]",116,1765,4,NA,NA,NA,NA,NA,NA,NA,NA,117,5.453306066803,0,8,163
5,"B",1,104,0,1564,"[2, 1, 4, 2, 3, 4, 1, 3]","[2, 1, 4, 2, 3, 4, 1, 3]",117,1765,4,NA,NA,NA,NA,NA,NA,NA,NA,118,5.1150895140665,0,8,243
10,"B",0,104,0,1761,"[2, 1, 4, 2, 3, 4, 1, 3]","[2, 1, 4, 2, 3, 1]",118,1765,4,NA,NA,NA,NA,NA,NA,NA,NA,119,3.40715502555366,1,6,NA
5,"A",1,104,0,1410,"[3, 2, 4, 1, 2, 4, 3, 1]","[3, 2, 4, 1, 2, 4, 3, 1]",119,1531,4,NA,NA,NA,NA,NA,NA,NA,NA,120,5.67375886524823,0,8,131
5,"A",1,104,0,1484,"[3, 2, 4, 1, 2, 4, 3, 1]","[3, 2, 4, 1, 2, 4, 3, 1]",120,1531,5,1,1484,5,329,"A",FALSE,FALSE,FALSE,121,5.39083557951482,0,8,159
30,"B",1,104,0,1433,"[2, 1, 4, 2, 3, 4, 1, 3]","[2, 1, 4, 2, 3, 4, 1, 3]",121,1765,5,1,1433,30,294,"B",FALSE,FALSE,FALSE,122,5.58269364968597,0,8,247
5,"A",1,104,0,1335,"[3, 2, 4, 1, 2, 4, 3, 1]","[3, 2, 4, 1, 2, 4, 3, 1]",122,1531,5,1,1335,5,250,"A",FALSE,FALSE,FALSE,123,5.99250936329588,0,8,130
5,"A",1,104,0,1240,"[3, 2, 4, 1, 2, 4, 3, 1]","[3, 2, 4, 1, 2, 4, 3, 1]",123,1531,5,1,1240,5,268,"A",TRUE,FALSE,TRUE,124,6.45161290322581,0,8,140
30,"B",0,104,1,2271,"[2, 1, 4, 2, 3, 4, 1, 3]","[2, 1, 4, 2, 3, 4, 1]",124,1765,5,0,1713,30,350,"B",TRUE,TRUE,TRUE,125,3.08234258036107,0,7,NA
10,"B",1,104,0,1390,"[2, 1, 4, 2, 3, 4, 1, 3]","[2, 1, 4, 2, 3, 4, 1, 3]",125,1765,5,1,1390,10,289,"B",TRUE,FALSE,FALSE,126,5.75539568345324,0,8,170
10,"A",0,104,0,1976,"[3, 2, 4, 1, 2, 4, 3, 1]","[3, 2, 4, 1, 2, 3]",126,1531,5,0,1313,10,0,"A",FALSE,FALSE,FALSE,127,3.03643724696356,1,6,NA
30,"A",1,104,0,1344,"[3, 2, 4, 1, 2, 4, 3, 1]","[3, 2, 4, 1, 2, 4, 3, 1]",127,1531,5,1,1344,30,311,"A",TRUE,TRUE,FALSE,128,5.95238095238095,0,8,147
5,"B",1,104,0,1340,"[2, 1, 4, 2, 3, 4, 1, 3]","[2, 1, 4, 2, 3, 4, 1, 3]",128,1765,5,1,1340,5,271,"B",FALSE,FALSE,TRUE,129,5.97014925373134,0,8,145
30,"A",1,104,0,1381,"[3, 2, 4, 1, 2, 4, 3, 1]","[3, 2, 4, 1, 2, 4, 3, 1]",129,1531,5,1,1381,30,299,"A",TRUE,FALSE,FALSE,130,5.7929036929761,0,8,145
5,"B",0,104,1,2268,"[2, 1, 4, 2, 3, 4, 1, 3]","[2, 1, 4, 2]",130,1765,5,0,1471,5,970,"B",FALSE,TRUE,FALSE,131,1.7636684303351,0,4,NA
5,"A",1,104,0,1432,"[3, 2, 4, 1, 2, 4, 3, 1]","[3, 2, 4, 1, 2, 4, 3, 1]",131,1531,5,1,1432,5,351,"A",TRUE,FALSE,FALSE,132,5.58659217877095,0,8,140
10,"A",0,104,0,1511,"[3, 2, 4, 1, 2, 4, 3, 1]","[3, 2, 4, 1, 4]",132,1531,5,0,695,10,293,"A",TRUE,TRUE,TRUE,133,3.30906684315023,1,5,NA
10,"B",1,104,0,1668,"[2, 1, 4, 2, 3, 4, 1, 3]","[2, 1, 4, 2, 3, 4, 1, 3]",133,1765,5,1,1668,10,343,"B",FALSE,FALSE,FALSE,134,4.79616306954436,0,8,262
5,"B",1,104,0,1489,"[2, 1, 4, 2, 3, 4, 1, 3]","[2, 1, 4, 2, 3, 4, 1, 3]",134,1765,5,1,1489,5,312,"B",FALSE,TRUE,TRUE,135,5.37273337810611,0,8,139
5,"A",0,104,1,2034,"[3, 2, 4, 1, 2, 4, 3, 1]","[3, 2, 4, 1, 2, 4, 3]",135,1531,5,0,1367,5,284,"A",TRUE,FALSE,FALSE,136,3.44149459193707,0,7,NA
30,"A",1,104,0,1330,"[3, 2, 4, 1, 2, 4, 3, 1]","[3, 2, 4, 1, 2, 4, 3, 1]",136,1531,5,1,1330,30,277,"A",TRUE,FALSE,FALSE,137,6.01503759398496,0,8,114
10,"A",1,104,0,1424,"[3, 2, 4, 1, 2, 4, 3, 1]","[3, 2, 4, 1, 2, 4, 3, 1]",137,1531,5,1,1424,10,364,"A",TRUE,FALSE,FALSE,138,5.61797752808989,0,8,98
10,"A",1,104,0,1412,"[3, 2, 4, 1, 2, 4, 3, 1]","[3, 2, 4, 1, 2, 4, 3, 1]",138,1531,5,1,1412,10,309,"A",FALSE,TRUE,FALSE,139,5.6657223796034,0,8,117
5,"B",0,104,1,2268,"[2, 1, 4, 2, 3, 4, 1, 3]","[2, 1, 4, 2, 3, 4]",139,1765,5,0,1651,5,675,"B",FALSE,FALSE,TRUE,140,2.64550264550265,0,6,NA
5,"B",0,104,1,2268,"[2, 1, 4, 2, 3, 4, 1, 3]","[2, 1, 4, 2, 3, 4]",140,1765,5,0,1629,5,583,"B",TRUE,FALSE,FALSE,141,2.64550264550265,0,6,NA
30,"B",1,104,0,1732,"[2, 1, 4, 2, 3, 4, 1, 3]","[2, 1, 4, 2, 3, 4, 1, 3]",141,1765,5,1,1732,30,576,"B",TRUE,TRUE,FALSE,142,4.6189376443418,0,8,170
30,"B",1,104,0,1675,"[2, 1, 4, 2, 3, 4, 1, 3]","[2, 1, 4, 2, 3, 4, 1, 3]",142,1765,5,1,1675,30,456,"B",TRUE,TRUE,TRUE,143,4.77611940298507,0,8,179
30,"A",0,104,0,1836,"[3, 2, 4, 1, 2, 4, 3, 1]","[3, 2, 4, 1, 2, 3]",143,1531,5,0,1144,30,355,"A",FALSE,FALSE,FALSE,144,3.26797385620915,1,6,NA
10,"B",0,104,0,NA,"[2, 1, 4, 2, 3, 4, 1, 3]","[3]",144,1765,5,0,0,10,300,"B",FALSE,FALSE,TRUE,145,NA,1,1,NA
30,"A",1,104,0,1490,"[3, 2, 4, 1, 2, 4, 3, 1]","[3, 2, 4, 1, 2, 4, 3, 1]",145,1531,5,1,1490,30,307,"A",TRUE,FALSE,FALSE,146,5.36912751677852,0,8,127
10,"A",1,104,0,1381,"[3, 2, 4, 1, 2, 4, 3, 1]","[3, 2, 4, 1, 2, 4, 3, 1]",146,1531,5,1,1381,10,277,"A",TRUE,TRUE,FALSE,147,5.7929036929761,0,8,111
10,"B",1,104,0,1715,"[2, 1, 4, 2, 3, 4, 1, 3]","[2, 1, 4, 2, 3, 4, 1, 3]",147,1765,5,1,1715,10,374,"B",TRUE,FALSE,FALSE,148,4.66472303206997,0,8,178
10,"B",0,104,1,2268,"[2, 1, 4, 2, 3, 4, 1, 3]","[2, 1, 4, 2, 3, 4]",148,1765,5,0,1569,10,698,"B",TRUE,FALSE,FALSE,149,2.64550264550265,0,6,NA
30,"B",1,104,0,1754,"[2, 1, 4, 2, 3, 4, 1, 3]","[2, 1, 4, 2, 3, 4, 1, 3]",149,1765,5,1,1754,30,634,"B",TRUE,FALSE,FALSE,150,4.56100342075257,0,8,144
10,"B",1,104,0,1593,"[2, 1, 4, 2, 3, 4, 1, 3]","[2, 1, 4, 2, 3, 4, 1, 3]",150,1765,6,1,1593,10,357,"B",TRUE,FALSE,FALSE,151,5.02197112366604,0,8,143
30,"A",1,104,0,1369,"[3, 2, 4, 1, 2, 4, 3, 1]","[3, 2, 4, 1, 2, 4, 3, 1]",151,1531,6,1,1369,30,277,"A",FALSE,FALSE,TRUE,152,5.84368151935719,0,8,133
5,"B",1,104,0,1544,"[2, 1, 4, 2, 3, 4, 1, 3]","[2, 1, 4, 2, 3, 4, 1, 3]",152,1765,6,1,1544,5,411,"B",FALSE,FALSE,TRUE,153,5.18134715025907,0,8,192
30,"B",0,104,0,NA,"[2, 1, 4, 2, 3, 4, 1, 3]","[3]",153,1765,6,0,0,30,373,"B",FALSE,FALSE,FALSE,154,NA,1,1,NA
10,"A",0,104,1,2034,"[3, 2, 4, 1, 2, 4, 3, 1]","[3, 2, 4, 1, 2]",154,1531,6,0,1445,10,742,"A",FALSE,TRUE,TRUE,155,2.45821042281219,0,5,NA
30,"A",0,104,0,1857,"[3, 2, 4, 1, 2, 4, 3, 1]","[3, 2, 4, 1, 2, 4, 3, 2]",155,1531,6,0,1335,30,311,"A",TRUE,TRUE,TRUE,156,4.30802369413032,1,8,NA
5,"A",1,104,0,1385,"[3, 2, 4, 1, 2, 4, 3, 1]","[3, 2, 4, 1, 2, 4, 3, 1]",156,1531,6,1,1385,5,259,"A",TRUE,FALSE,FALSE,157,5.77617328519856,0,8,167
30,"B",0,104,1,2271,"[2, 1, 4, 2, 3, 4, 1, 3]","[2, 1, 4, 2, 3, 4, 1]",157,1765,6,0,1449,30,318,"B",TRUE,TRUE,TRUE,158,3.08234258036107,0,7,NA
10,"B",1,104,0,1642,"[2, 1, 4, 2, 3, 4, 1, 3]","[2, 1, 4, 2, 3, 4, 1, 3]",158,1765,6,1,1642,10,320,"B",FALSE,TRUE,TRUE,159,4.8721071863581,0,8,273
30,"A",0,104,0,1860,"[3, 2, 4, 1, 2, 4, 3, 1]","[3, 2, 4, 1, 2, 4, 1]",159,1531,6,0,1214,30,301,"A",FALSE,FALSE,FALSE,160,3.76344086021505,1,7,NA
30,"B",1,104,0,1657,"[2, 1, 4, 2, 3, 4, 1, 3]","[2, 1, 4, 2, 3, 4, 1, 3]",160,1765,6,1,1657,30,390,"B",TRUE,TRUE,TRUE,161,4.82800241400121,0,8,213
30,"A",1,104,0,1531,"[3, 2, 4, 1, 2, 4, 3, 1]","[3, 2, 4, 1, 2, 4, 3, 1]",161,1531,6,1,1531,30,367,"A",FALSE,TRUE,FALSE,162,5.22534291312867,0,8,162
10,"B",1,104,0,1630,"[2, 1, 4, 2, 3, 4, 1, 3]","[2, 1, 4, 2, 3, 4, 1, 3]",162,1765,6,1,1630,10,432,"B",FALSE,TRUE,FALSE,163,4.9079754601227,0,8,185
10,"A",0,104,1,2034,"[3, 2, 4, 1, 2, 4, 3, 1]","[3, 2, 4, 1, 2]",163,1531,6,0,1393,10,762,"A",FALSE,TRUE,FALSE,164,2.45821042281219,0,5,NA
30,"B",1,104,0,1616,"[2, 1, 4, 2, 3, 4, 1, 3]","[2, 1, 4, 2, 3, 4, 1, 3]",164,1765,6,1,1616,30,522,"B",FALSE,TRUE,TRUE,165,4.95049504950495,0,8,115
5,"B",1,104,0,1467,"[2, 1, 4, 2, 3, 4, 1, 3]","[2, 1, 4, 2, 3, 4, 1, 3]",165,1765,6,1,1467,5,371,"B",TRUE,TRUE,FALSE,166,5.453306066803,0,8,111
10,"A",0,104,1,2036,"[3, 2, 4, 1, 2, 4, 3, 1]","[3, 2, 4, 1, 2, 4, 3]",166,1531,6,0,1398,10,363,"A",FALSE,TRUE,TRUE,167,3.43811394891945,0,7,NA
5,"A",1,104,0,1467,"[3, 2, 4, 1, 2, 4, 3, 1]","[3, 2, 4, 1, 2, 4, 3, 1]",167,1531,6,1,1467,5,338,"A",TRUE,TRUE,FALSE,168,5.453306066803,0,8,115
5,"A",0,104,1,2037,"[3, 2, 4, 1, 2, 4, 3, 1]","[3, 2, 4, 1, 2]",168,1531,6,0,1494,5,499,"A",FALSE,TRUE,FALSE,169,2.45459008345606,0,5,NA
5,"B",1,104,0,1554,"[2, 1, 4, 2, 3, 4, 1, 3]","[2, 1, 4, 2, 3, 4, 1, 3]",169,1765,6,1,1554,5,305,"B",TRUE,FALSE,TRUE,170,5.14800514800515,0,8,254
5,"A",0,104,1,2034,"[3, 2, 4, 1, 2, 4, 3, 1]","[3, 2, 4, 1, 2, 4, 3]",170,1531,6,0,1410,5,392,"A",FALSE,TRUE,TRUE,171,3.44149459193707,0,7,NA
10,"A",0,104,1,2034,"[3, 2, 4, 1, 2, 4, 3, 1]","[3, 2, 4, 1, 2]",171,1531,6,0,1286,10,325,"A",TRUE,TRUE,TRUE,172,2.45821042281219,0,5,NA
10,"B",1,104,0,1355,"[2, 1, 4, 2, 3, 4, 1, 3]","[2, 1, 4, 2, 3, 4, 1, 3]",172,1765,6,1,1355,10,366,"B",FALSE,FALSE,FALSE,173,5.90405904059041,0,8,154
5,"B",0,104,0,1386,"[2, 1, 4, 2, 3, 4, 1, 3]","[2, 1, 4, 3]",173,1765,6,0,594,5,339,"B",TRUE,TRUE,FALSE,174,2.88600288600289,1,4,NA
10,"B",1,104,0,1758,"[2, 1, 4, 2, 3, 4, 1, 3]","[2, 1, 4, 2, 3, 4, 1, 3]",174,1765,6,1,1758,10,611,"B",FALSE,TRUE,FALSE,175,4.55062571103527,0,8,111
30,"A",0,104,1,2034,"[3, 2, 4, 1, 2, 4, 3, 1]","[3, 2, 4, 1, 2, 4, 3]",175,1531,6,0,1419,30,388,"A",FALSE,FALSE,TRUE,176,3.44149459193707,0,7,NA
5,"A",0,104,1,2034,"[3, 2, 4, 1, 2, 4, 3, 1]","[3, 2, 4, 1, 2, 4]",176,1531,6,0,1320,5,508,"A",FALSE,FALSE,FALSE,177,2.94985250737463,0,6,NA
10,"A",0,104,1,2034,"[3, 2, 4, 1, 2, 4, 3, 1]","[3, 2, 4, 1, 2]",177,1531,6,0,1392,10,733,"A",FALSE,FALSE,FALSE,178,2.45821042281219,0,5,NA
5,"B",0,104,0,1707,"[2, 1, 4, 2, 3, 4, 1, 3]","[2, 1, 4, 2, 3, 4, 3]",178,1765,6,0,1079,5,362,"B",TRUE,TRUE,FALSE,179,4.10076157000586,1,7,NA
30,"B",1,104,0,1345,"[2, 1, 4, 2, 3, 4, 1, 3]","[2, 1, 4, 2, 3, 4, 1, 3]",179,1765,6,1,1345,30,357,"B",TRUE,TRUE,TRUE,180,5.94795539033457,0,8,110
30,"B",0,104,0,1749,"[2, 1, 4, 2, 3, 4, 1, 3]","[2, 1, 4, 2, 3, 1]",180,1765,7,0,980,30,334,"B",FALSE,TRUE,FALSE,181,3.43053173241852,1,6,NA
5,"B",1,104,0,1588,"[2, 1, 4, 2, 3, 4, 1, 3]","[2, 1, 4, 2, 3, 4, 1, 3]",181,1765,7,1,1588,5,297,"B",FALSE,FALSE,TRUE,182,5.03778337531486,0,8,129
30,"A",1,104,0,1329,"[3, 2, 4, 1, 2, 4, 3, 1]","[3, 2, 4, 1, 2, 4, 3, 1]",182,1531,7,1,1329,30,310,"A",FALSE,TRUE,TRUE,183,6.01956358164033,0,8,142
5,"A",0,104,0,1440,"[3, 2, 4, 1, 2, 4, 3, 1]","[3, 2, 4, 1, 4]",183,1531,7,0,623,5,289,"A",TRUE,FALSE,FALSE,184,3.47222222222222,1,5,NA
10,"A",0,104,0,1937,"[3, 2, 4, 1, 2, 4, 3, 1]","[3, 2, 4, 1, 2, 4, 2]",184,1531,7,0,1257,10,280,"A",FALSE,FALSE,TRUE,185,3.61383582860093,1,7,NA
5,"B",0,104,0,1321,"[2, 1, 4, 2, 3, 4, 1, 3]","[2, 1, 4, 3]",185,1765,7,0,493,5,273,"B",TRUE,FALSE,FALSE,186,3.02800908402725,1,4,NA
10,"A",0,104,1,2037,"[3, 2, 4, 1, 2, 4, 3, 1]","[3, 2, 4, 1, 2, 4, 3]",186,1531,7,0,1433,10,338,"A",FALSE,FALSE,TRUE,187,3.43642611683849,0,7,NA
5,"B",1,104,0,1412,"[2, 1, 4, 2, 3, 4, 1, 3]","[2, 1, 4, 2, 3, 4, 1, 3]",187,1765,7,1,1412,5,327,"B",TRUE,FALSE,TRUE,188,5.6657223796034,0,8,119
10,"B",1,104,0,1328,"[2, 1, 4, 2, 3, 4, 1, 3]","[2, 1, 4, 2, 3, 4, 1, 3]",188,1765,7,1,1328,10,286,"B",FALSE,TRUE,TRUE,189,6.02409638554217,0,8,123
30,"B",1,104,0,1331,"[2, 1, 4, 2, 3, 4, 1, 3]","[2, 1, 4, 2, 3, 4, 1, 3]",189,1765,7,1,1331,30,350,"B",TRUE,FALSE,TRUE,190,6.01051840721262,0,8,127
30,"A",1,104,0,1496,"[3, 2, 4, 1, 2, 4, 3, 1]","[3, 2, 4, 1, 2, 4, 3, 1]",190,1531,7,1,1496,30,285,"A",FALSE,FALSE,FALSE,191,5.3475935828877,0,8,146
5,"B",1,104,0,1445,"[2, 1, 4, 2, 3, 4, 1, 3]","[2, 1, 4, 2, 3, 4, 1, 3]",191,1765,7,1,1445,5,309,"B",FALSE,FALSE,FALSE,192,5.5363321799308,0,8,90
30,"A",1,104,0,1447,"[3, 2, 4, 1, 2, 4, 3, 1]","[3, 2, 4, 1, 2, 4, 3, 1]",192,1531,7,1,1447,30,278,"A",TRUE,TRUE,TRUE,193,5.5286800276434,0,8,153
5,"A",0,104,1,2034,"[3, 2, 4, 1, 2, 4, 3, 1]","[3, 2, 4, 1, 2, 4]",193,1531,7,0,1442,5,307,"A",FALSE,TRUE,FALSE,194,2.94985250737463,0,6,NA
30,"B",1,104,0,1652,"[2, 1, 4, 2, 3, 4, 1, 3]","[2, 1, 4, 2, 3, 4, 1, 3]",194,1765,7,1,1652,30,362,"B",TRUE,FALSE,FALSE,195,4.84261501210654,0,8,150
10,"B",1,104,0,1692,"[2, 1, 4, 2, 3, 4, 1, 3]","[2, 1, 4, 2, 3, 4, 1, 3]",195,1765,7,1,1692,10,673,"B",TRUE,FALSE,TRUE,196,4.72813238770686,0,8,121
10,"A",0,104,0,1499,"[3, 2, 4, 1, 2, 4, 3, 1]","[3, 2, 4, 1, 4]",196,1531,7,0,724,10,304,"A",TRUE,FALSE,TRUE,197,3.33555703802535,1,5,NA
10,"B",1,104,0,1449,"[2, 1, 4, 2, 3, 4, 1, 3]","[2, 1, 4, 2, 3, 4, 1, 3]",197,1765,7,1,1449,10,285,"B",FALSE,FALSE,FALSE,198,5.52104899930987,0,8,140
5,"A",1,104,0,1519,"[3, 2, 4, 1, 2, 4, 3, 1]","[3, 2, 4, 1, 2, 4, 3, 1]",198,1531,7,1,1519,5,273,"A",TRUE,TRUE,TRUE,199,5.26662277814352,0,8,130
30,"A",1,104,0,1416,"[3, 2, 4, 1, 2, 4, 3, 1]","[3, 2, 4, 1, 2, 4, 3, 1]",199,1531,7,1,1416,30,304,"A",TRUE,TRUE,FALSE,200,5.64971751412429,0,8,129
5,"A",0,104,1,2034,"[3, 2, 4, 1, 2, 4, 3, 1]","[3, 2, 4, 1, 2, 4, 3]",200,1531,7,0,1459,5,355,"A",FALSE,TRUE,FALSE,201,3.44149459193707,0,7,NA
30,"B",1,104,0,1380,"[2, 1, 4, 2, 3, 4, 1, 3]","[2, 1, 4, 2, 3, 4, 1, 3]",201,1765,7,1,1380,30,337,"B",TRUE,FALSE,TRUE,202,5.79710144927536,0,8,115
10,"A",0,104,0,1760,"[3, 2, 4, 1, 2, 4, 3, 1]","[3, 2, 4, 1, 2, 3]",202,1531,7,0,1053,10,289,"A",TRUE,FALSE,TRUE,203,3.40909090909091,1,6,NA
30,"A",0,104,1,2034,"[3, 2, 4, 1, 2, 4, 3, 1]","[3, 2, 4, 1, 2]",203,1531,7,0,1375,30,671,"A",FALSE,FALSE,TRUE,204,2.45821042281219,0,5,NA
10,"A",0,104,1,2034,"[3, 2, 4, 1, 2, 4, 3, 1]","[3, 2, 4, 1, 2, 4, 3]",204,1531,7,0,1438,10,287,"A",FALSE,FALSE,FALSE,205,3.44149459193707,0,7,NA
5,"B",1,104,0,1679,"[2, 1, 4, 2, 3, 4, 1, 3]","[2, 1, 4, 2, 3, 4, 1, 3]",205,1765,7,1,1679,5,285,"B",TRUE,TRUE,FALSE,206,4.76474091721263,0,8,297
10,"B",1,104,0,1486,"[2, 1, 4, 2, 3, 4, 1, 3]","[2, 1, 4, 2, 3, 4, 1, 3]",206,1765,7,1,1486,10,307,"B",TRUE,TRUE,FALSE,207,5.3835800807537,0,8,132
5,"A",1,104,0,1350,"[3, 2, 4, 1, 2, 4, 3, 1]","[3, 2, 4, 1, 2, 4, 3, 1]",207,1531,7,1,1350,5,303,"A",TRUE,TRUE,FALSE,208,5.92592592592593,0,8,138
10,"B",1,104,0,1320,"[2, 1, 4, 2, 3, 4, 1, 3]","[2, 1, 4, 2, 3, 4, 1, 3]",208,1765,7,1,1320,10,341,"B",FALSE,TRUE,FALSE,209,6.06060606060606,0,8,130
30,"B",0,104,1,2268,"[2, 1, 4, 2, 3, 4, 1, 3]","[2, 1, 4, 2, 3, 4, 1]",209,1765,7,0,1635,30,678,"B",TRUE,TRUE,TRUE,210,3.08641975308642,0,7,NA
5,"B",1,104,0,1299,"[2, 1, 4, 2, 3, 4, 1, 3]","[2, 1, 4, 2, 3, 4, 1, 3]",210,1342,8,1,1299,5,311,"B",TRUE,FALSE,TRUE,211,6.15858352578907,0,8,140
10,"B",0,104,1,1847,"[2, 1, 4, 2, 3, 4, 1, 3]","[2, 1, 4, 2, 3, 4, 1]",211,1342,8,0,1288,10,397,"B",FALSE,FALSE,TRUE,212,3.78992961559285,0,7,NA
10,"A",0,104,1,1882,"[3, 2, 4, 1, 2, 4, 3, 1]","[3, 2, 4, 1]",212,1379,8,0,640,10,264,"A",TRUE,FALSE,FALSE,213,2.12539851222104,0,4,NA
30,"A",0,104,0,1813,"[3, 2, 4, 1, 2, 4, 3, 1]","[3, 2, 4, 1, 2, 4, 3, 2]",213,1379,8,0,1268,30,275,"A",FALSE,TRUE,FALSE,214,4.41257584114727,1,8,NA
30,"B",0,104,1,1845,"[2, 1, 4, 2, 3, 4, 1, 3]","[2, 1, 4, 2, 3, 4, 1]",214,1342,8,0,1261,30,310,"B",TRUE,TRUE,FALSE,215,3.7940379403794,0,7,NA
5,"B",0,104,0,1035,"[2, 1, 4, 2, 3, 4, 1, 3]","[2, 4]",215,1342,8,0,357,5,357,"B",TRUE,TRUE,FALSE,216,1.93236714975845,1,2,NA
30,"A",0,104,1,1882,"[3, 2, 4, 1, 2, 4, 3, 1]","[3, 2, 4, 1, 2]",216,1379,8,0,1063,30,425,"A",TRUE,TRUE,FALSE,217,2.6567481402763,0,5,NA
10,"A",0,104,1,1882,"[3, 2, 4, 1, 2, 4, 3, 1]","[3, 2, 4, 1, 2, 4]",217,1379,8,0,1283,10,310,"A",FALSE,TRUE,TRUE,218,3.18809776833156,0,6,NA
5,"A",0,104,1,1882,"[3, 2, 4, 1, 2, 4, 3, 1]","[3, 2, 4, 1, 2, 4]",218,1379,8,0,1284,5,299,"A",TRUE,FALSE,TRUE,219,3.18809776833156,0,6,NA
5,"A",0,104,1,1885,"[3, 2, 4, 1, 2, 4, 3, 1]","[3, 2, 4, 1, 2, 4, 3]",219,1379,8,0,1256,5,253,"A",TRUE,TRUE,TRUE,220,3.71352785145889,0,7,NA
30,"A",0,104,1,1882,"[3, 2, 4, 1, 2, 4, 3, 1]","[3, 2, 4, 1, 2, 4, 3]",220,1379,8,0,1337,30,235,"A",TRUE,FALSE,TRUE,221,3.71944739638682,0,7,NA
30,"B",0,104,1,1845,"[2, 1, 4, 2, 3, 4, 1, 3]","[2, 1, 4, 2, 3]",221,1342,8,0,1235,30,317,"B",FALSE,TRUE,FALSE,222,2.710027100271,0,5,NA
10,"B",0,104,0,1778,"[2, 1, 4, 2, 3, 4, 1, 3]","[2, 1, 4, 2, 4]",222,1342,8,0,923,10,382,"B",TRUE,FALSE,FALSE,223,2.81214848143982,1,5,NA
5,"A",0,104,1,1885,"[3, 2, 4, 1, 2, 4, 3, 1]","[3, 2, 4, 1, 2]",223,1379,8,0,1182,5,343,"A",TRUE,TRUE,TRUE,224,2.6525198938992,0,5,NA
10,"A",0,104,1,1882,"[3, 2, 4, 1, 2, 4, 3, 1]","[3, 2, 4, 1, 2, 4]",224,1379,8,0,1253,10,343,"A",FALSE,TRUE,TRUE,225,3.18809776833156,0,6,NA
30,"A",1,104,0,1351,"[3, 2, 4, 1, 2, 4, 3, 1]","[3, 2, 4, 1, 2, 4, 3, 1]",225,1379,8,1,1351,30,302,"A",FALSE,TRUE,FALSE,226,5.92153960029608,0,8,135
10,"B",0,104,0,1694,"[2, 1, 4, 2, 3, 4, 1, 3]","[2, 1, 4, 2, 4]",226,1342,8,0,900,10,501,"B",FALSE,FALSE,TRUE,227,2.95159386068477,1,5,NA
10,"B",0,104,1,1845,"[2, 1, 4, 2, 3, 4, 1, 3]","[2, 1, 4, 2, 3, 4, 1]",227,1342,8,0,1299,10,310,"B",TRUE,FALSE,TRUE,228,3.7940379403794,0,7,NA
10,"A",0,104,1,1886,"[3, 2, 4, 1, 2, 4, 3, 1]","[3, 2, 4, 1, 2, 4]",228,1379,8,0,1221,10,288,"A",FALSE,TRUE,TRUE,229,3.1813361611877,0,6,NA
30,"B",0,104,1,1847,"[2, 1, 4, 2, 3, 4, 1, 3]","[2, 1, 4, 2, 3, 4]",229,1342,8,0,1208,30,382,"B",TRUE,FALSE,FALSE,230,3.24851109907959,0,6,NA
30,"B",0,104,1,1847,"[2, 1, 4, 2, 3, 4, 1, 3]","[2, 1, 4, 2]",230,1342,8,0,1183,30,720,"B",FALSE,FALSE,FALSE,231,2.16567406605306,0,4,NA
5,"B",0,104,0,1755,"[2, 1, 4, 2, 3, 4, 1, 3]","[2, 1, 4, 2, 3, 4, 4]",231,1342,8,0,1049,5,321,"B",TRUE,FALSE,FALSE,232,3.98860398860399,1,7,NA
30,"B",0,104,0,1016,"[2, 1, 4, 2, 3, 4, 1, 3]","[2, 3]",232,1342,8,0,385,30,385,"B",FALSE,FALSE,FALSE,233,1.96850393700787,1,2,NA
5,"A",0,104,1,1882,"[3, 2, 4, 1, 2, 4, 3, 1]","[3, 2, 4, 1, 2]",233,1379,8,0,1291,5,367,"A",FALSE,FALSE,FALSE,234,2.6567481402763,0,5,NA
10,"B",0,104,0,1769,"[2, 1, 4, 2, 3, 4, 1, 3]","[2, 1, 4, 2, 4]",234,1342,8,0,997,10,444,"B",TRUE,FALSE,TRUE,235,2.82645562464669,1,5,NA
5,"A",0,104,1,1882,"[3, 2, 4, 1, 2, 4, 3, 1]","[3, 2, 4, 1, 2, 4, 3]",235,1379,8,0,1304,5,293,"A",FALSE,TRUE,FALSE,236,3.71944739638682,0,7,NA
30,"A",0,104,1,1882,"[3, 2, 4, 1, 2, 4, 3, 1]","[3, 2, 4, 1, 2, 4, 3]",236,1379,8,0,1342,30,302,"A",TRUE,FALSE,TRUE,237,3.71944739638682,0,7,NA
5,"B",1,104,0,1330,"[2, 1, 4, 2, 3, 4, 1, 3]","[2, 1, 4, 2, 3, 4, 1, 3]",237,1342,8,1,1330,5,325,"B",TRUE,FALSE,FALSE,238,6.01503759398496,0,8,123
10,"A",0,104,0,1677,"[3, 2, 4, 1, 2, 4, 3, 1]","[3, 2, 4, 1, 4]",238,1379,8,0,623,10,296,"A",FALSE,TRUE,TRUE,239,2.98151460942159,1,5,NA
5,"B",1,104,0,1251,"[2, 1, 4, 2, 3, 4, 1, 3]","[2, 1, 4, 2, 3, 4, 1, 3]",239,1342,8,1,1251,5,282,"B",TRUE,FALSE,TRUE,240,6.39488409272582,0,8,132
5,"B",0,105,1,2666,"[3, 2, 4, 1, 2, 4, 3, 1]","[3, 2, 4, 1, 2, 4, 3]",0,2163,1,0,2131,5,278,"B",FALSE,TRUE,FALSE,241,2.62565641410353,0,7,NA
5,"A",0,105,1,2273,"[4, 3, 1, 4, 2, 3, 1, 2]","[4, 3, 1, 4, 2, 3, 1]",1,1770,1,0,1526,5,283,"A",FALSE,FALSE,TRUE,242,3.07963044434668,0,7,NA
30,"A",1,105,0,1721,"[4, 3, 1, 4, 2, 3, 1, 2]","[4, 3, 1, 4, 2, 3, 1, 2]",2,1770,1,1,1721,30,288,"A",TRUE,FALSE,TRUE,243,4.64846019755956,0,8,269
30,"A",1,105,0,1663,"[4, 3, 1, 4, 2, 3, 1, 2]","[4, 3, 1, 4, 2, 3, 1, 2]",3,1770,1,1,1663,30,284,"A",FALSE,FALSE,TRUE,244,4.81058328322309,0,8,169
5,"A",1,105,0,1641,"[4, 3, 1, 4, 2, 3, 1, 2]","[4, 3, 1, 4, 2, 3, 1, 2]",4,1770,1,1,1641,5,288,"A",FALSE,TRUE,TRUE,245,4.8750761730652,0,8,93
30,"B",0,105,0,2403,"[3, 2, 4, 1, 2, 4, 3, 1]","[3, 2, 4, 1, 2, 4, 2]",5,2163,1,0,1500,30,292,"B",TRUE,FALSE,FALSE,246,2.9130253849355,1,7,NA
30,"B",0,105,0,2120,"[3, 2, 4, 1, 2, 4, 3, 1]","[3, 2, 4, 1, 2, 3]",6,2163,1,0,1381,30,282,"B",FALSE,FALSE,FALSE,247,2.83018867924528,1,6,NA
10,"A",1,105,0,1751,"[4, 3, 1, 4, 2, 3, 1, 2]","[4, 3, 1, 4, 2, 3, 1, 2]",7,1770,1,1,1751,10,269,"A",TRUE,TRUE,TRUE,248,4.56881781838949,0,8,182
5,"B",1,105,0,2074,"[3, 2, 4, 1, 2, 4, 3, 1]","[3, 2, 4, 1, 2, 4, 3, 1]",8,2163,1,1,2074,5,283,"B",TRUE,FALSE,TRUE,249,3.8572806171649,0,8,145
5,"B",1,105,0,1982,"[3, 2, 4, 1, 2, 4, 3, 1]","[3, 2, 4, 1, 2, 4, 3, 1]",9,2163,1,1,1982,5,282,"B",FALSE,TRUE,TRUE,250,4.03632694248234,0,8,153
10,"B",1,105,0,1950,"[3, 2, 4, 1, 2, 4, 3, 1]","[3, 2, 4, 1, 2, 4, 3, 1]",10,2163,1,1,1950,10,235,"B",TRUE,TRUE,TRUE,251,4.1025641025641,0,8,170
30,"B",1,105,0,2112,"[3, 2, 4, 1, 2, 4, 3, 1]","[3, 2, 4, 1, 2, 4, 3, 1]",11,2163,1,1,2112,30,248,"B",TRUE,FALSE,FALSE,252,3.78787878787879,0,8,139
5,"A",0,105,1,2273,"[4, 3, 1, 4, 2, 3, 1, 2]","[4, 3, 1, 4, 2, 3, 1]",12,1770,1,0,1744,5,273,"A",TRUE,FALSE,FALSE,253,3.07963044434668,0,7,NA
10,"A",0,105,1,2274,"[4, 3, 1, 4, 2, 3, 1, 2]","[4, 3, 1, 4, 2, 3]",13,1770,1,0,1621,10,303,"A",TRUE,FALSE,TRUE,254,2.63852242744063,0,6,NA
30,"B",1,105,0,1785,"[3, 2, 4, 1, 2, 4, 3, 1]","[3, 2, 4, 1, 2, 4, 3, 1]",14,2163,1,1,1785,30,254,"B",TRUE,FALSE,FALSE,255,4.48179271708683,0,8,149
30,"A",1,105,0,1745,"[4, 3, 1, 4, 2, 3, 1, 2]","[4, 3, 1, 4, 2, 3, 1, 2]",15,1770,1,1,1745,30,308,"A",FALSE,TRUE,TRUE,256,4.58452722063037,0,8,137
10,"B",1,105,0,1801,"[3, 2, 4, 1, 2, 4, 3, 1]","[3, 2, 4, 1, 2, 4, 3, 1]",16,2163,1,1,1801,10,278,"B",TRUE,TRUE,TRUE,257,4.44197667962243,0,8,145
10,"B",0,105,0,1298,"[3, 2, 4, 1, 2, 4, 3, 1]","[3, 2, 1]",17,2163,1,0,549,10,326,"B",FALSE,TRUE,FALSE,258,2.31124807395994,1,3,NA
5,"B",1,105,0,1886,"[3, 2, 4, 1, 2, 4, 3, 1]","[3, 2, 4, 1, 2, 4, 3, 1]",18,2163,1,1,1886,5,238,"B",FALSE,FALSE,TRUE,259,4.24178154825027,0,8,174
5,"A",0,105,1,2273,"[4, 3, 1, 4, 2, 3, 1, 2]","[4, 3, 1, 4, 2, 3, 1]",19,1770,1,0,1678,5,299,"A",FALSE,FALSE,TRUE,260,3.07963044434668,0,7,NA
10,"A",1,105,0,1603,"[4, 3, 1, 4, 2, 3, 1, 2]","[4, 3, 1, 4, 2, 3, 1, 2]",20,1770,1,1,1603,10,289,"A",TRUE,TRUE,FALSE,261,4.9906425452277,0,8,96
30,"A",1,105,0,1584,"[4, 3, 1, 4, 2, 3, 1, 2]","[4, 3, 1, 4, 2, 3, 1, 2]",21,1770,1,1,1584,30,284,"A",TRUE,TRUE,TRUE,262,5.05050505050505,0,8,120
10,"B",0,105,0,2278,"[3, 2, 4, 1, 2, 4, 3, 1]","[3, 2, 4, 1, 2, 4, 2]",22,2163,1,0,1538,10,260,"B",TRUE,FALSE,TRUE,263,3.07287093942054,1,7,NA
10,"A",0,105,1,2273,"[4, 3, 1, 4, 2, 3, 1, 2]","[4, 3, 1, 4, 2, 3, 1]",23,1770,1,0,1661,10,312,"A",FALSE,TRUE,FALSE,264,3.07963044434668,0,7,NA
5,"B",1,105,0,1947,"[3, 2, 4, 1, 2, 4, 3, 1]","[3, 2, 4, 1, 2, 4, 3, 1]",24,2163,1,1,1947,5,241,"B",TRUE,FALSE,FALSE,265,4.10888546481767,0,8,145
5,"A",1,105,0,1644,"[4, 3, 1, 4, 2, 3, 1, 2]","[4, 3, 1, 4, 2, 3, 1, 2]",25,1770,1,1,1644,5,297,"A",TRUE,FALSE,FALSE,266,4.8661800486618,0,8,149
10,"B",1,105,0,1787,"[3, 2, 4, 1, 2, 4, 3, 1]","[3, 2, 4, 1, 2, 4, 3, 1]",26,2163,1,1,1787,10,245,"B",FALSE,FALSE,FALSE,267,4.47677672076105,0,8,157
30,"A",0,105,1,2273,"[4, 3, 1, 4, 2, 3, 1, 2]","[4, 3, 1, 4, 2, 3]",27,1770,1,0,1472,30,267,"A",FALSE,FALSE,FALSE,268,2.63968323801144,0,6,NA
10,"A",1,105,0,1621,"[4, 3, 1, 4, 2, 3, 1, 2]","[4, 3, 1, 4, 2, 3, 1, 2]",28,1770,1,1,1621,10,285,"A",FALSE,FALSE,TRUE,269,4.93522516964837,0,8,120
30,"B",0,105,0,2530,"[3, 2, 4, 1, 2, 4, 3, 1]","[3, 2, 4, 1, 2, 4, 2]",29,2163,1,0,1825,30,289,"B",FALSE,FALSE,TRUE,270,2.76679841897233,1,7,NA
5,"A",1,105,0,1679,"[4, 3, 1, 4, 2, 3, 1, 2]","[4, 3, 1, 4, 2, 3, 1, 2]",30,1770,2,1,1679,5,288,"A",FALSE,FALSE,TRUE,271,4.76474091721263,0,8,122
5,"A",0,105,1,2273,"[4, 3, 1, 4, 2, 3, 1, 2]","[4, 3, 1, 4, 2, 3, 1]",31,1770,2,0,1711,5,396,"A",FALSE,TRUE,FALSE,272,3.07963044434668,0,7,NA
5,"B",0,105,1,2666,"[3, 2, 4, 1, 2, 4, 3, 1]","[3, 2, 4, 1, 2, 4, 3]",32,2163,2,0,2060,5,253,"B",TRUE,FALSE,FALSE,273,2.62565641410353,0,7,NA
30,"A",0,105,1,2276,"[4, 3, 1, 4, 2, 3, 1, 2]","[4, 3, 1, 4, 2, 3, 1]",33,1770,2,0,1716,30,290,"A",FALSE,TRUE,FALSE,274,3.07557117750439,0,7,NA
10,"A",1,105,0,1682,"[4, 3, 1, 4, 2, 3, 1, 2]","[4, 3, 1, 4, 2, 3, 1, 2]",34,1770,2,1,1682,10,283,"A",TRUE,TRUE,TRUE,275,4.75624256837099,0,8,112
30,"A",1,105,0,1528,"[4, 3, 1, 4, 2, 3, 1, 2]","[4, 3, 1, 4, 2, 3, 1, 2]",35,1770,2,1,1528,30,271,"A",TRUE,FALSE,TRUE,276,5.23560209424084,0,8,108
5,"B",1,105,0,2097,"[3, 2, 4, 1, 2, 4, 3, 1]","[3, 2, 4, 1, 2, 4, 3, 1]",36,2163,2,1,2097,5,284,"B",FALSE,FALSE,TRUE,277,3.81497377205532,0,8,147
5,"A",1,105,0,1579,"[4, 3, 1, 4, 2, 3, 1, 2]","[4, 3, 1, 4, 2, 3, 1, 2]",37,1770,2,1,1579,5,313,"A",FALSE,TRUE,TRUE,278,5.06649778340722,0,8,161
30,"B",1,105,0,1974,"[3, 2, 4, 1, 2, 4, 3, 1]","[3, 2, 4, 1, 2, 4, 3, 1]",38,2163,2,1,1974,30,252,"B",TRUE,TRUE,TRUE,279,4.05268490374873,0,8,215
30,"A",1,105,0,1680,"[4, 3, 1, 4, 2, 3, 1, 2]","[4, 3, 1, 4, 2, 3, 1, 2]",39,1770,2,1,1680,30,342,"A",FALSE,TRUE,TRUE,280,4.76190476190476,0,8,123
10,"B",1,105,0,1848,"[3, 2, 4, 1, 2, 4, 3, 1]","[3, 2, 4, 1, 2, 4, 3, 1]",40,2163,2,1,1848,10,273,"B",FALSE,FALSE,TRUE,281,4.32900432900433,0,8,187
10,"A",1,105,0,1505,"[4, 3, 1, 4, 2, 3, 1, 2]","[4, 3, 1, 4, 2, 3, 1, 2]",41,1770,2,1,1505,10,238,"A",FALSE,TRUE,TRUE,282,5.3156146179402,0,8,111
10,"B",1,105,0,1983,"[3, 2, 4, 1, 2, 4, 3, 1]","[3, 2, 4, 1, 2, 4, 3, 1]",42,2163,2,1,1983,10,299,"B",FALSE,FALSE,TRUE,283,4.03429147755925,0,8,176
5,"B",1,105,0,2007,"[3, 2, 4, 1, 2, 4, 3, 1]","[3, 2, 4, 1, 2, 4, 3, 1]",43,2163,2,1,2007,5,246,"B",FALSE,FALSE,TRUE,284,3.98604882909816,0,8,204
5,"A",1,105,0,1584,"[4, 3, 1, 4, 2, 3, 1, 2]","[4, 3, 1, 4, 2, 3, 1, 2]",44,1770,2,1,1584,5,254,"A",TRUE,TRUE,FALSE,285,5.05050505050505,0,8,147
10,"B",1,105,0,1934,"[3, 2, 4, 1, 2, 4, 3, 1]","[3, 2, 4, 1, 2, 4, 3, 1]",45,2163,2,1,1934,10,326,"B",FALSE,FALSE,TRUE,286,4.13650465356774,0,8,191
5,"B",1,105,0,1871,"[3, 2, 4, 1, 2, 4, 3, 1]","[3, 2, 4, 1, 2, 4, 3, 1]",46,2163,2,1,1871,5,222,"B",FALSE,FALSE,TRUE,287,4.27578834847675,0,8,201
5,"A",0,105,1,2273,"[4, 3, 1, 4, 2, 3, 1, 2]","[4, 3, 1, 4, 2, 3]",47,1770,2,0,1566,5,275,"A",TRUE,TRUE,TRUE,288,2.63968323801144,0,6,NA
30,"B",1,105,0,1954,"[3, 2, 4, 1, 2, 4, 3, 1]","[3, 2, 4, 1, 2, 4, 3, 1]",48,2163,2,1,1954,30,388,"B",TRUE,FALSE,FALSE,289,4.09416581371546,0,8,121
30,"A",0,105,1,2273,"[4, 3, 1, 4, 2, 3, 1, 2]","[4, 3, 1, 4, 2, 3]",49,1770,2,0,1651,30,237,"A",TRUE,TRUE,FALSE,290,2.63968323801144,0,6,NA
10,"B",1,105,0,1892,"[3, 2, 4, 1, 2, 4, 3, 1]","[3, 2, 4, 1, 2, 4, 3, 1]",50,2163,2,1,1892,10,281,"B",FALSE,TRUE,FALSE,291,4.22832980972516,0,8,167
10,"A",1,105,0,1636,"[4, 3, 1, 4, 2, 3, 1, 2]","[4, 3, 1, 4, 2, 3, 1, 2]",51,1770,2,1,1636,10,318,"A",FALSE,TRUE,FALSE,292,4.88997555012225,0,8,132
30,"B",1,105,0,2054,"[3, 2, 4, 1, 2, 4, 3, 1]","[3, 2, 4, 1, 2, 4, 3, 1]",52,2163,2,1,2054,30,282,"B",TRUE,FALSE,FALSE,293,3.89483933787731,0,8,172
10,"B",1,105,0,1867,"[3, 2, 4, 1, 2, 4, 3, 1]","[3, 2, 4, 1, 2, 4, 3, 1]",53,2163,2,1,1867,10,253,"B",TRUE,FALSE,TRUE,294,4.28494911622925,0,8,209
10,"A",1,105,0,1613,"[4, 3, 1, 4, 2, 3, 1, 2]","[4, 3, 1, 4, 2, 3, 1, 2]",54,1770,2,1,1613,10,273,"A",TRUE,FALSE,FALSE,295,4.95970241785493,0,8,33
10,"A",1,105,0,1647,"[4, 3, 1, 4, 2, 3, 1, 2]","[4, 3, 1, 4, 2, 3, 1, 2]",55,1770,2,1,1647,10,287,"A",FALSE,FALSE,TRUE,296,4.85731633272617,0,8,145
5,"B",1,105,0,1698,"[3, 2, 4, 1, 2, 4, 3, 1]","[3, 2, 4, 1, 2, 4, 3, 1]",56,2163,2,1,1698,5,260,"B",TRUE,FALSE,TRUE,297,4.71142520612485,0,8,178
30,"B",1,105,0,1657,"[3, 2, 4, 1, 2, 4, 3, 1]","[3, 2, 4, 1, 2, 4, 3, 1]",57,2163,2,1,1657,30,296,"B",TRUE,FALSE,TRUE,298,4.82800241400121,0,8,157
30,"B",1,105,0,1786,"[3, 2, 4, 1, 2, 4, 3, 1]","[3, 2, 4, 1, 2, 4, 3, 1]",58,2163,2,1,1786,30,253,"B",TRUE,TRUE,TRUE,299,4.47928331466965,0,8,143
30,"A",1,105,0,1637,"[4, 3, 1, 4, 2, 3, 1, 2]","[4, 3, 1, 4, 2, 3, 1, 2]",59,1770,2,1,1637,30,259,"A",TRUE,TRUE,TRUE,300,4.88698839340257,0,8,107
30,"B",0,105,1,2292,"[3, 2, 4, 1, 2, 4, 3, 1]","[3, 2, 4, 1, 2, 4, 3]",60,1786,3,0,1704,30,279,"B",TRUE,TRUE,TRUE,301,3.05410122164049,0,7,NA
5,"B",0,105,1,2293,"[3, 2, 4, 1, 2, 4, 3, 1]","[3, 2, 4, 1, 2, 4, 3]",61,1786,3,0,1723,5,262,"B",TRUE,TRUE,TRUE,302,3.05276929786306,0,7,NA
30,"B",1,105,0,1652,"[3, 2, 4, 1, 2, 4, 3, 1]","[3, 2, 4, 1, 2, 4, 3, 1]",62,1786,3,1,1652,30,253,"B",FALSE,TRUE,TRUE,303,4.84261501210654,0,8,87
10,"B",1,105,0,1748,"[3, 2, 4, 1, 2, 4, 3, 1]","[3, 2, 4, 1, 2, 4, 3, 1]",63,1786,3,1,1748,10,245,"B",TRUE,TRUE,FALSE,304,4.5766590389016,0,8,164
5,"B",1,105,0,1626,"[3, 2, 4, 1, 2, 4, 3, 1]","[3, 2, 4, 1, 2, 4, 3, 1]",64,1786,3,1,1626,5,286,"B",TRUE,TRUE,TRUE,305,4.920049200492,0,8,148
5,"A",0,105,1,2032,"[4, 3, 1, 4, 2, 3, 1, 2]","[4, 3, 1, 4, 2, 3]",65,1526,3,0,1406,5,274,"A",TRUE,TRUE,FALSE,306,2.95275590551181,0,6,NA
30,"A",0,105,1,2029,"[4, 3, 1, 4, 2, 3, 1, 2]","[4, 3, 1, 4, 2, 3]",66,1526,3,0,1219,30,255,"A",TRUE,TRUE,FALSE,307,2.95712173484475,0,6,NA
30,"B",0,105,0,1825,"[3, 2, 4, 1, 2, 4, 3, 1]","[3, 2, 4, 1, 2, 3]",67,1786,3,0,1179,30,242,"B",FALSE,FALSE,FALSE,308,3.28767123287671,1,6,NA
10,"A",0,105,1,2029,"[4, 3, 1, 4, 2, 3, 1, 2]","[4, 3, 1, 4, 2, 3, 1]",68,1526,3,0,1513,10,355,"A",FALSE,FALSE,FALSE,309,3.44997535731888,0,7,NA
30,"A",0,105,1,2029,"[4, 3, 1, 4, 2, 3, 1, 2]","[4, 3, 1, 4, 2, 3]",69,1526,3,0,1448,30,273,"A",TRUE,FALSE,TRUE,310,2.95712173484475,0,6,NA
10,"B",0,105,0,NA,"[3, 2, 4, 1, 2, 4, 3, 1]","[2]",70,1786,3,0,0,10,465,"B",FALSE,FALSE,TRUE,311,NA,1,1,NA
30,"B",0,105,0,1807,"[3, 2, 4, 1, 2, 4, 3, 1]","[3, 2, 4, 1, 4]",71,1786,3,0,968,30,297,"B",FALSE,TRUE,FALSE,312,2.76701715550636,1,5,NA
10,"B",0,105,0,1195,"[3, 2, 4, 1, 2, 4, 3, 1]","[3, 2, 1]",72,1786,3,0,451,10,284,"B",FALSE,TRUE,FALSE,313,2.51046025104603,1,3,NA
10,"A",0,105,1,2029,"[4, 3, 1, 4, 2, 3, 1, 2]","[4, 3, 1, 4, 2, 3, 1]",73,1526,3,0,1408,10,279,"A",TRUE,FALSE,TRUE,314,3.44997535731888,0,7,NA
10,"A",0,105,1,2029,"[4, 3, 1, 4, 2, 3, 1, 2]","[4, 3, 1, 4, 2, 3, 1]",74,1526,3,0,1404,10,256,"A",TRUE,TRUE,TRUE,315,3.44997535731888,0,7,NA
5,"A",0,105,1,2032,"[4, 3, 1, 4, 2, 3, 1, 2]","[4, 3, 1, 4, 2, 3, 1]",75,1526,3,0,1361,5,251,"A",FALSE,TRUE,FALSE,316,3.44488188976378,0,7,NA
5,"A",0,105,1,2029,"[4, 3, 1, 4, 2, 3, 1, 2]","[4, 3, 1, 4, 2, 3, 1]",76,1526,3,0,1344,5,267,"A",TRUE,TRUE,TRUE,317,3.44997535731888,0,7,NA
5,"B",0,105,0,1222,"[3, 2, 4, 1, 2, 4, 3, 1]","[3, 2, 1]",77,1786,3,0,480,5,308,"B",TRUE,TRUE,TRUE,318,2.45499181669394,1,3,NA
30,"A",0,105,1,2030,"[4, 3, 1, 4, 2, 3, 1, 2]","[4, 3, 1, 4, 2, 3, 1]",78,1526,3,0,1385,30,294,"A",TRUE,TRUE,TRUE,319,3.44827586206897,0,7,NA
30,"A",0,105,1,2029,"[4, 3, 1, 4, 2, 3, 1, 2]","[4, 3, 1, 4, 2, 3, 1]",79,1526,3,0,1384,30,334,"A",FALSE,TRUE,TRUE,320,3.44997535731888,0,7,NA
10,"B",0,105,1,2289,"[3, 2, 4, 1, 2, 4, 3, 1]","[3, 2, 4, 1, 2, 4, 3]",80,1786,3,0,1687,10,289,"B",FALSE,TRUE,FALSE,321,3.05810397553517,0,7,NA
5,"B",0,105,0,1285,"[3, 2, 4, 1, 2, 4, 3, 1]","[3, 2, 1]",81,1786,3,0,566,5,359,"B",TRUE,TRUE,FALSE,322,2.33463035019455,1,3,NA
10,"A",0,105,1,2032,"[4, 3, 1, 4, 2, 3, 1, 2]","[4, 3, 1, 4, 2, 3, 1]",82,1526,3,0,1262,10,248,"A",TRUE,FALSE,TRUE,323,3.44488188976378,0,7,NA
10,"A",0,105,1,2029,"[4, 3, 1, 4, 2, 3, 1, 2]","[4, 3, 1, 4, 2, 3]",83,1526,3,0,1315,10,307,"A",FALSE,TRUE,TRUE,324,2.95712173484475,0,6,NA
5,"A",0,105,1,2029,"[4, 3, 1, 4, 2, 3, 1, 2]","[4, 3, 1, 4, 2, 3, 1]",84,1526,3,0,1279,5,263,"A",TRUE,FALSE,FALSE,325,3.44997535731888,0,7,NA
5,"B",0,105,0,2213,"[3, 2, 4, 1, 2, 4, 3, 1]","[3, 2, 4, 1, 2, 4, 2]",85,1786,3,0,1549,5,282,"B",FALSE,TRUE,TRUE,326,3.16312697695436,1,7,NA
30,"B",0,105,0,1210,"[3, 2, 4, 1, 2, 4, 3, 1]","[3, 2, 1]",86,1786,3,0,488,30,282,"B",TRUE,FALSE,TRUE,327,2.47933884297521,1,3,NA
10,"B",0,105,1,2289,"[3, 2, 4, 1, 2, 4, 3, 1]","[3, 2, 4, 1, 2, 4, 3]",87,1786,3,0,1657,10,258,"B",FALSE,FALSE,FALSE,328,3.05810397553517,0,7,NA
5,"A",1,105,0,1467,"[4, 3, 1, 4, 2, 3, 1, 2]","[4, 3, 1, 4, 2, 3, 1, 2]",88,1526,3,1,1467,5,282,"A",FALSE,TRUE,TRUE,329,5.453306066803,0,8,15
30,"A",0,105,1,2029,"[4, 3, 1, 4, 2, 3, 1, 2]","[4, 3, 1, 4, 2, 3, 1]",89,1526,3,0,1243,30,278,"A",FALSE,FALSE,FALSE,330,3.44997535731888,0,7,NA
30,"A",0,105,1,2030,"[4, 3, 1, 4, 2, 3, 1, 2]","[4, 3, 1, 4, 2, 3, 1]",90,1526,4,0,1423,30,302,"A",TRUE,FALSE,TRUE,331,3.44827586206897,0,7,NA
5,"B",0,105,1,2289,"[3, 2, 4, 1, 2, 4, 3, 1]","[3, 2, 4, 1, 2, 4]",91,1786,4,0,1616,5,254,"B",TRUE,FALSE,FALSE,332,2.62123197903014,0,6,NA
10,"A",1,105,0,1340,"[4, 3, 1, 4, 2, 3, 1, 2]","[4, 3, 1, 4, 2, 3, 1, 2]",92,1526,4,1,1340,10,259,"A",FALSE,TRUE,FALSE,333,5.97014925373134,0,8,87
10,"A",1,105,0,1288,"[4, 3, 1, 4, 2, 3, 1, 2]","[4, 3, 1, 4, 2, 3, 1, 2]",93,1526,4,1,1288,10,276,"A",TRUE,FALSE,FALSE,334,6.2111801242236,0,8,82
30,"B",1,105,0,1532,"[3, 2, 4, 1, 2, 4, 3, 1]","[3, 2, 4, 1, 2, 4, 3, 1]",94,1786,4,1,1532,30,271,"B",FALSE,FALSE,FALSE,335,5.22193211488251,0,8,139
5,"B",0,105,0,1960,"[3, 2, 4, 1, 2, 4, 3, 1]","[3, 2, 4, 1, 2, 4, 2]",95,1786,4,0,1174,5,382,"B",FALSE,TRUE,TRUE,336,3.57142857142857,1,7,NA
10,"B",0,105,1,2289,"[3, 2, 4, 1, 2, 4, 3, 1]","[3, 2, 4, 1, 2, 4]",96,1786,4,0,1690,10,347,"B",TRUE,FALSE,TRUE,337,2.62123197903014,0,6,NA
5,"A",1,105,0,1428,"[4, 3, 1, 4, 2, 3, 1, 2]","[4, 3, 1, 4, 2, 3, 1, 2]",97,1526,4,1,1428,5,305,"A",FALSE,TRUE,TRUE,338,5.60224089635854,0,8,104
30,"A",1,105,0,1324,"[4, 3, 1, 4, 2, 3, 1, 2]","[4, 3, 1, 4, 2, 3, 1, 2]",98,1526,4,1,1324,30,246,"A",TRUE,TRUE,TRUE,339,6.04229607250755,0,8,103
10,"B",1,105,0,1635,"[3, 2, 4, 1, 2, 4, 3, 1]","[3, 2, 4, 1, 2, 4, 3, 1]",99,1786,4,1,1635,10,246,"B",TRUE,TRUE,TRUE,340,4.89296636085627,0,8,125
10,"B",0,105,0,1761,"[3, 2, 4, 1, 2, 4, 3, 1]","[3, 2, 4, 1, 2, 4, 2]",100,1786,4,0,1072,10,253,"B",FALSE,FALSE,FALSE,341,3.97501419647927,1,7,NA
10,"A",0,105,1,2030,"[4, 3, 1, 4, 2, 3, 1, 2]","[4, 3, 1, 4, 2, 3, 1]",101,1526,4,0,1438,10,234,"A",FALSE,FALSE,TRUE,342,3.44827586206897,0,7,NA
5,"B",0,105,0,NA,"[3, 2, 4, 1, 2, 4, 3, 1]","[2]",102,1786,4,0,0,5,348,"B",TRUE,FALSE,FALSE,343,NA,1,1,NA
30,"A",1,105,0,1396,"[4, 3, 1, 4, 2, 3, 1, 2]","[4, 3, 1, 4, 2, 3, 1, 2]",103,1526,4,1,1396,30,258,"A",FALSE,TRUE,FALSE,344,5.73065902578797,0,8,83
30,"B",1,105,0,1508,"[3, 2, 4, 1, 2, 4, 3, 1]","[3, 2, 4, 1, 2, 4, 3, 1]",104,1786,4,1,1508,30,253,"B",TRUE,TRUE,TRUE,345,5.30503978779841,0,8,99
10,"B",0,105,0,1228,"[3, 2, 4, 1, 2, 4, 3, 1]","[3, 2, 1]",105,1786,4,0,513,10,327,"B",FALSE,FALSE,TRUE,346,2.44299674267101,1,3,NA
30,"B",1,105,0,1741,"[3, 2, 4, 1, 2, 4, 3, 1]","[3, 2, 4, 1, 2, 4, 3, 1]",106,1786,4,1,1741,30,262,"B",FALSE,FALSE,TRUE,347,4.59506031016657,0,8,121
30,"A",0,105,1,2029,"[4, 3, 1, 4, 2, 3, 1, 2]","[4, 3, 1, 4, 2, 3, 1]",107,1526,4,0,1329,30,290,"A",TRUE,TRUE,TRUE,348,3.44997535731888,0,7,NA
5,"A",0,105,1,2029,"[4, 3, 1, 4, 2, 3, 1, 2]","[4, 3, 1, 4, 2, 3, 1]",108,1526,4,0,1432,5,321,"A",TRUE,TRUE,TRUE,349,3.44997535731888,0,7,NA
5,"A",0,105,1,2029,"[4, 3, 1, 4, 2, 3, 1, 2]","[4, 3, 1, 4, 2, 3, 1]",109,1526,4,0,1230,5,240,"A",TRUE,FALSE,TRUE,350,3.44997535731888,0,7,NA
30,"A",0,105,0,1254,"[4, 3, 1, 4, 2, 3, 1, 2]","[4, 3, 1, 2]",110,1526,4,0,575,30,311,"A",FALSE,FALSE,FALSE,351,3.18979266347687,1,4,NA
10,"A",0,105,1,2029,"[4, 3, 1, 4, 2, 3, 1, 2]","[4, 3, 1, 4, 2, 3, 1]",111,1526,4,0,1408,10,406,"A",TRUE,FALSE,TRUE,352,3.44997535731888,0,7,NA
30,"B",0,105,0,1790,"[3, 2, 4, 1, 2, 4, 3, 1]","[3, 2, 4, 1, 2, 4, 2]",112,1786,4,0,1116,30,280,"B",FALSE,FALSE,TRUE,353,3.91061452513966,1,7,NA
5,"A",0,105,1,2029,"[4, 3, 1, 4, 2, 3, 1, 2]","[4, 3, 1, 4, 2, 3, 1]",113,1526,4,0,1250,5,261,"A",FALSE,TRUE,TRUE,354,3.44997535731888,0,7,NA
10,"A",0,105,1,2029,"[4, 3, 1, 4, 2, 3, 1, 2]","[4, 3, 1, 4, 2, 3, 1]",114,1526,4,0,1298,10,297,"A",TRUE,FALSE,FALSE,355,3.44997535731888,0,7,NA
30,"B",1,105,0,1524,"[3, 2, 4, 1, 2, 4, 3, 1]","[3, 2, 4, 1, 2, 4, 3, 1]",115,1786,4,1,1524,30,281,"B",TRUE,FALSE,FALSE,356,5.249343832021,0,8,120
5,"B",0,105,0,1613,"[3, 2, 4, 1, 2, 4, 3, 1]","[3, 2, 4, 1, 2, 3]",116,1786,4,0,894,5,245,"B",TRUE,FALSE,FALSE,357,3.7197768133912,1,6,NA
5,"B",1,105,0,1543,"[3, 2, 4, 1, 2, 4, 3, 1]","[3, 2, 4, 1, 2, 4, 3, 1]",117,1786,4,1,1543,5,306,"B",TRUE,FALSE,TRUE,358,5.18470511989631,0,8,127
10,"B",1,105,0,1646,"[3, 2, 4, 1, 2, 4, 3, 1]","[3, 2, 4, 1, 2, 4, 3, 1]",118,1786,4,1,1646,10,247,"B",TRUE,FALSE,TRUE,359,4.86026731470231,0,8,106
5,"A",0,105,0,1735,"[4, 3, 1, 4, 2, 3, 1, 2]","[4, 3, 1, 4, 2, 3, 4]",119,1526,4,0,1151,5,278,"A",FALSE,FALSE,FALSE,360,4.03458213256484,1,7,NA
5,"A",0,105,1,2273,"[4, 3, 1, 4, 2, 3, 1, 2]","[4, 3, 1, 4, 2, 3, 1]",120,1770,5,0,1279,5,272,"A",TRUE,TRUE,FALSE,361,3.07963044434668,0,7,NA
30,"B",1,105,0,1506,"[3, 2, 4, 1, 2, 4, 3, 1]","[3, 2, 4, 1, 2, 4, 3, 1]",121,2163,5,1,1506,30,286,"B",TRUE,FALSE,TRUE,362,5.31208499335989,0,8,78
5,"A",0,105,1,2273,"[4, 3, 1, 4, 2, 3, 1, 2]","[4, 3, 1, 4, 2, 3, 1]",122,1770,5,0,1444,5,277,"A",TRUE,TRUE,TRUE,363,3.07963044434668,0,7,NA
5,"A",1,105,0,1534,"[4, 3, 1, 4, 2, 3, 1, 2]","[4, 3, 1, 4, 2, 3, 1, 2]",123,1770,5,1,1534,5,273,"A",FALSE,FALSE,FALSE,364,5.21512385919166,0,8,111
30,"B",0,105,0,1328,"[3, 2, 4, 1, 2, 4, 3, 1]","[3, 2, 1]",124,2163,5,0,555,30,303,"B",FALSE,TRUE,TRUE,365,2.25903614457831,1,3,NA
10,"B",1,105,0,1955,"[3, 2, 4, 1, 2, 4, 3, 1]","[3, 2, 4, 1, 2, 4, 3, 1]",125,2163,5,1,1955,10,350,"B",FALSE,TRUE,FALSE,366,4.0920716112532,0,8,169
10,"A",1,105,0,1663,"[4, 3, 1, 4, 2, 3, 1, 2]","[4, 3, 1, 4, 2, 3, 1, 2]",126,1770,5,1,1663,10,273,"A",TRUE,FALSE,FALSE,367,4.81058328322309,0,8,116
30,"A",1,105,0,1513,"[4, 3, 1, 4, 2, 3, 1, 2]","[4, 3, 1, 4, 2, 3, 1, 2]",127,1770,5,1,1513,30,290,"A",FALSE,FALSE,TRUE,368,5.28750826173166,0,8,95
5,"B",1,105,0,1568,"[3, 2, 4, 1, 2, 4, 3, 1]","[3, 2, 4, 1, 2, 4, 3, 1]",128,2163,5,1,1568,5,249,"B",TRUE,TRUE,FALSE,369,5.10204081632653,0,8,112
30,"A",1,105,0,1381,"[4, 3, 1, 4, 2, 3, 1, 2]","[4, 3, 1, 4, 2, 3, 1, 2]",129,1770,5,1,1381,30,228,"A",TRUE,FALSE,FALSE,370,5.7929036929761,0,8,142
5,"B",1,105,0,1534,"[3, 2, 4, 1, 2, 4, 3, 1]","[3, 2, 4, 1, 2, 4, 3, 1]",130,2163,5,1,1533,5,254,"B",FALSE,FALSE,TRUE,371,5.21512385919166,0,8,153
5,"A",1,105,0,1504,"[4, 3, 1, 4, 2, 3, 1, 2]","[4, 3, 1, 4, 2, 3, 1, 2]",131,1770,5,1,1504,5,263,"A",TRUE,TRUE,FALSE,372,5.31914893617021,0,8,136
10,"A",1,105,0,1641,"[4, 3, 1, 4, 2, 3, 1, 2]","[4, 3, 1, 4, 2, 3, 1, 2]",132,1770,5,1,1641,10,263,"A",TRUE,FALSE,TRUE,373,4.8750761730652,0,8,94
10,"B",1,105,0,1841,"[3, 2, 4, 1, 2, 4, 3, 1]","[3, 2, 4, 1, 2, 4, 3, 1]",133,2163,5,1,1841,10,370,"B",FALSE,TRUE,TRUE,374,4.34546442151005,0,8,162
5,"B",1,105,0,1688,"[3, 2, 4, 1, 2, 4, 3, 1]","[3, 2, 4, 1, 2, 4, 3, 1]",134,2163,5,1,1688,5,346,"B",TRUE,FALSE,FALSE,375,4.739336492891,0,8,170
5,"A",1,105,0,1508,"[4, 3, 1, 4, 2, 3, 1, 2]","[4, 3, 1, 4, 2, 3, 1, 2]",135,1770,5,1,1508,5,278,"A",FALSE,FALSE,TRUE,376,5.30503978779841,0,8,123
30,"A",1,105,0,1446,"[4, 3, 1, 4, 2, 3, 1, 2]","[4, 3, 1, 4, 2, 3, 1, 2]",136,1770,5,1,1446,30,326,"A",FALSE,TRUE,TRUE,377,5.53250345781466,0,8,100
10,"A",1,105,0,1535,"[4, 3, 1, 4, 2, 3, 1, 2]","[4, 3, 1, 4, 2, 3, 1, 2]",137,1770,5,1,1535,10,334,"A",TRUE,FALSE,TRUE,378,5.21172638436482,0,8,130
10,"A",1,105,0,1420,"[4, 3, 1, 4, 2, 3, 1, 2]","[4, 3, 1, 4, 2, 3, 1, 2]",138,1770,5,1,1420,10,263,"A",TRUE,FALSE,FALSE,379,5.63380281690141,0,8,123
5,"B",0,105,0,1139,"[3, 2, 4, 1, 2, 4, 3, 1]","[3, 2, 1]",139,2163,5,0,459,5,251,"B",TRUE,FALSE,TRUE,380,2.63388937664618,1,3,NA
5,"B",1,105,0,1851,"[3, 2, 4, 1, 2, 4, 3, 1]","[3, 2, 4, 1, 2, 4, 3, 1]",140,2163,5,1,1851,5,265,"B",FALSE,FALSE,TRUE,381,4.32198811453268,0,8,121
30,"B",1,105,0,1755,"[3, 2, 4, 1, 2, 4, 3, 1]","[3, 2, 4, 1, 2, 4, 3, 1]",141,2163,5,1,1755,30,258,"B",TRUE,TRUE,FALSE,382,4.55840455840456,0,8,104
30,"B",1,105,0,1628,"[3, 2, 4, 1, 2, 4, 3, 1]","[3, 2, 4, 1, 2, 4, 3, 1]",142,2163,5,1,1628,30,279,"B",TRUE,TRUE,TRUE,383,4.91400491400491,0,8,95
30,"A",1,105,0,1530,"[4, 3, 1, 4, 2, 3, 1, 2]","[4, 3, 1, 4, 2, 3, 1, 2]",143,1770,5,1,1530,30,259,"A",FALSE,FALSE,FALSE,384,5.22875816993464,0,8,118
10,"B",0,105,0,1666,"[3, 2, 4, 1, 2, 4, 3, 1]","[3, 2, 4, 3]",144,2163,5,0,983,10,256,"B",FALSE,FALSE,FALSE,385,2.40096038415366,1,4,NA
30,"A",0,105,1,2276,"[4, 3, 1, 4, 2, 3, 1, 2]","[4, 3, 1, 4, 2, 3, 1]",145,1770,5,0,1649,30,291,"A",TRUE,FALSE,TRUE,386,3.07557117750439,0,7,NA
10,"A",0,105,1,2273,"[4, 3, 1, 4, 2, 3, 1, 2]","[4, 3, 1, 4, 2, 3]",146,1770,5,0,1726,10,269,"A",TRUE,FALSE,FALSE,387,2.63968323801144,0,6,NA
10,"B",1,105,0,1747,"[3, 2, 4, 1, 2, 4, 3, 1]","[3, 2, 4, 1, 2, 4, 3, 1]",147,2163,5,1,1747,10,263,"B",FALSE,FALSE,TRUE,388,4.57927876359473,0,8,105
10,"B",1,105,0,1891,"[3, 2, 4, 1, 2, 4, 3, 1]","[3, 2, 4, 1, 2, 4, 3, 1]",148,2163,5,1,1891,10,266,"B",FALSE,TRUE,FALSE,389,4.23056583818086,0,8,135
30,"B",1,105,0,1949,"[3, 2, 4, 1, 2, 4, 3, 1]","[3, 2, 4, 1, 2, 4, 3, 1]",149,2163,5,1,1949,30,268,"B",TRUE,FALSE,FALSE,390,4.10466906105695,0,8,87
10,"B",0,105,0,1346,"[3, 2, 4, 1, 2, 4, 3, 1]","[3, 2, 1]",150,2163,6,0,575,10,335,"B",FALSE,FALSE,TRUE,391,2.22882615156018,1,3,NA
30,"A",0,105,1,2276,"[4, 3, 1, 4, 2, 3, 1, 2]","[4, 3, 1, 4]",151,1770,6,0,1592,30,320,"A",FALSE,FALSE,FALSE,392,1.75746924428822,0,4,NA
5,"B",1,105,0,1799,"[3, 2, 4, 1, 2, 4, 3, 1]","[3, 2, 4, 1, 2, 4, 3, 1]",152,2163,6,1,1799,5,270,"B",TRUE,TRUE,FALSE,393,4.44691495275153,0,8,137
30,"B",1,105,0,1764,"[3, 2, 4, 1, 2, 4, 3, 1]","[3, 2, 4, 1, 2, 4, 3, 1]",153,2163,6,1,1764,30,354,"B",FALSE,TRUE,FALSE,394,4.53514739229025,0,8,92
10,"A",1,105,0,1700,"[4, 3, 1, 4, 2, 3, 1, 2]","[4, 3, 1, 4, 2, 3, 1, 2]",154,1770,6,1,1700,10,287,"A",FALSE,FALSE,TRUE,395,4.70588235294118,0,8,171
30,"A",0,105,1,2273,"[4, 3, 1, 4, 2, 3, 1, 2]","[4, 3, 1, 4, 2, 3, 1]",155,1770,6,0,1642,30,330,"A",FALSE,TRUE,TRUE,396,3.07963044434668,0,7,NA
5,"A",1,105,0,1674,"[4, 3, 1, 4, 2, 3, 1, 2]","[4, 3, 1, 4, 2, 3, 1, 2]",156,1770,6,1,1674,5,299,"A",TRUE,FALSE,TRUE,397,4.77897252090801,0,8,152
30,"B",1,105,0,1634,"[3, 2, 4, 1, 2, 4, 3, 1]","[3, 2, 4, 1, 2, 4, 3, 1]",157,2163,6,1,1634,30,253,"B",TRUE,FALSE,TRUE,398,4.89596083231334,0,8,123
10,"B",1,105,0,1626,"[3, 2, 4, 1, 2, 4, 3, 1]","[3, 2, 4, 1, 2, 4, 3, 1]",158,2163,6,1,1626,10,266,"B",FALSE,TRUE,TRUE,399,4.920049200492,0,8,100
30,"A",1,105,0,1587,"[4, 3, 1, 4, 2, 3, 1, 2]","[4, 3, 1, 4, 2, 3, 1, 2]",159,1770,6,1,1587,30,271,"A",TRUE,FALSE,FALSE,400,5.04095778197858,0,8,148
30,"B",1,105,0,1744,"[3, 2, 4, 1, 2, 4, 3, 1]","[3, 2, 4, 1, 2, 4, 3, 1]",160,2163,6,1,1744,30,303,"B",FALSE,FALSE,TRUE,401,4.58715596330275,0,8,140
30,"A",0,105,1,2273,"[4, 3, 1, 4, 2, 3, 1, 2]","[4, 3, 1, 4, 2, 3, 1]",161,1770,6,0,1674,30,292,"A",FALSE,TRUE,TRUE,402,3.07963044434668,0,7,NA
10,"B",1,105,0,1681,"[3, 2, 4, 1, 2, 4, 3, 1]","[3, 2, 4, 1, 2, 4, 3, 1]",162,2163,6,1,1681,10,284,"B",FALSE,TRUE,FALSE,403,4.75907198096371,0,8,109
10,"A",0,105,1,2276,"[4, 3, 1, 4, 2, 3, 1, 2]","[4, 3, 1, 4, 2, 3, 1]",163,1770,6,0,1683,10,428,"A",TRUE,FALSE,FALSE,404,3.07557117750439,0,7,NA
30,"B",1,105,0,1565,"[3, 2, 4, 1, 2, 4, 3, 1]","[3, 2, 4, 1, 2, 4, 3, 1]",164,2163,6,1,1565,30,254,"B",FALSE,TRUE,TRUE,405,5.11182108626198,0,8,106
5,"B",1,105,0,1536,"[3, 2, 4, 1, 2, 4, 3, 1]","[3, 2, 4, 1, 2, 4, 3, 1]",165,2163,6,1,1536,5,260,"B",TRUE,FALSE,TRUE,406,5.20833333333333,0,8,123
10,"A",0,105,1,2275,"[4, 3, 1, 4, 2, 3, 1, 2]","[4, 3, 1, 4, 2, 3, 1]",166,1770,6,0,1423,10,290,"A",FALSE,FALSE,FALSE,407,3.07692307692308,0,7,NA
5,"A",0,105,1,2273,"[4, 3, 1, 4, 2, 3, 1, 2]","[4, 3, 1, 4, 2, 3, 1]",167,1770,6,0,1471,5,316,"A",FALSE,FALSE,FALSE,408,3.07963044434668,0,7,NA
5,"A",1,105,0,1521,"[4, 3, 1, 4, 2, 3, 1, 2]","[4, 3, 1, 4, 2, 3, 1, 2]",168,1770,6,1,1521,5,268,"A",TRUE,FALSE,TRUE,409,5.25969756738987,0,8,133
5,"B",1,105,0,1656,"[3, 2, 4, 1, 2, 4, 3, 1]","[3, 2, 4, 1, 2, 4, 3, 1]",169,2163,6,1,1656,5,286,"B",FALSE,TRUE,FALSE,410,4.83091787439614,0,8,130
5,"A",1,105,0,1421,"[4, 3, 1, 4, 2, 3, 1, 2]","[4, 3, 1, 4, 2, 3, 1, 2]",170,1770,6,1,1421,5,248,"A",FALSE,TRUE,TRUE,411,5.62983814215341,0,8,48
10,"A",0,105,0,1901,"[4, 3, 1, 4, 2, 3, 1, 2]","[4, 3, 1, 4, 2, 3, 2]",171,1770,6,0,1171,10,253,"A",TRUE,FALSE,FALSE,412,3.68227248816412,1,7,NA
10,"B",1,105,0,1622,"[3, 2, 4, 1, 2, 4, 3, 1]","[3, 2, 4, 1, 2, 4, 3, 1]",172,2163,6,1,1622,10,244,"B",FALSE,FALSE,TRUE,413,4.93218249075216,0,8,98
5,"B",1,105,0,1580,"[3, 2, 4, 1, 2, 4, 3, 1]","[3, 2, 4, 1, 2, 4, 3, 1]",173,2163,6,1,1580,5,241,"B",TRUE,FALSE,FALSE,414,5.06329113924051,0,8,118
10,"B",0,105,0,2451,"[3, 2, 4, 1, 2, 4, 3, 1]","[3, 2, 4, 1, 2, 4, 2]",174,2163,6,0,1760,10,301,"B",FALSE,FALSE,TRUE,415,2.85597715218278,1,7,NA
30,"A",1,105,0,1607,"[4, 3, 1, 4, 2, 3, 1, 2]","[4, 3, 1, 4, 2, 3, 1, 2]",175,1770,6,1,1607,30,307,"A",FALSE,FALSE,FALSE,416,4.97822028624767,0,8,137
5,"A",1,105,0,1609,"[4, 3, 1, 4, 2, 3, 1, 2]","[4, 3, 1, 4, 2, 3, 1, 2]",176,1770,6,1,1609,5,291,"A",FALSE,FALSE,FALSE,417,4.97203231821007,0,8,161
10,"A",0,105,0,1977,"[4, 3, 1, 4, 2, 3, 1, 2]","[4, 3, 1, 4, 2, 1]",177,1770,6,0,1127,10,291,"A",FALSE,TRUE,FALSE,418,3.03490136570561,1,6,NA
5,"B",0,105,0,2328,"[3, 2, 4, 1, 2, 4, 3, 1]","[3, 2, 4, 1, 2, 4, 2]",178,2163,6,0,1597,5,408,"B",FALSE,FALSE,TRUE,419,3.00687285223368,1,7,NA
30,"B",1,105,0,1574,"[3, 2, 4, 1, 2, 4, 3, 1]","[3, 2, 4, 1, 2, 4, 3, 1]",179,2163,6,1,1574,30,308,"B",TRUE,TRUE,TRUE,420,5.08259212198221,0,8,68
30,"B",1,105,0,1481,"[3, 2, 4, 1, 2, 4, 3, 1]","[3, 2, 4, 1, 2, 4, 3, 1]",180,2163,7,1,1481,30,314,"B",TRUE,TRUE,FALSE,421,5.40175557056043,0,8,73
5,"B",0,105,0,1210,"[3, 2, 4, 1, 2, 4, 3, 1]","[3, 2, 1]",181,2163,7,0,466,5,271,"B",TRUE,TRUE,FALSE,422,2.47933884297521,1,3,NA
30,"A",0,105,1,2273,"[4, 3, 1, 4, 2, 3, 1, 2]","[4, 3, 1, 4, 2, 3, 1]",182,1770,7,0,1467,30,274,"A",FALSE,TRUE,FALSE,423,3.07963044434668,0,7,NA
5,"A",0,105,1,2273,"[4, 3, 1, 4, 2, 3, 1, 2]","[4, 3, 1, 4, 2, 3, 1]",183,1770,7,0,1332,5,252,"A",FALSE,FALSE,FALSE,424,3.07963044434668,0,7,NA
10,"A",1,105,0,1595,"[4, 3, 1, 4, 2, 3, 1, 2]","[4, 3, 1, 4, 2, 3, 1, 2]",184,1770,7,1,1595,10,317,"A",FALSE,FALSE,FALSE,425,5.01567398119122,0,8,128
5,"B",0,105,0,1305,"[3, 2, 4, 1, 2, 4, 3, 1]","[3, 2, 1]",185,2163,7,0,500,5,282,"B",TRUE,FALSE,TRUE,426,2.29885057471264,1,3,NA
10,"A",1,105,0,1628,"[4, 3, 1, 4, 2, 3, 1, 2]","[4, 3, 1, 4, 2, 3, 1, 2]",186,1770,7,1,1628,10,288,"A",TRUE,FALSE,TRUE,427,4.91400491400491,0,8,113
5,"B",1,105,0,1819,"[3, 2, 4, 1, 2, 4, 3, 1]","[3, 2, 4, 1, 2, 4, 3, 1]",187,2163,7,1,1819,5,295,"B",FALSE,FALSE,FALSE,428,4.39802089059923,0,8,90
10,"B",1,105,0,2071,"[3, 2, 4, 1, 2, 4, 3, 1]","[3, 2, 4, 1, 2, 4, 3, 1]",188,2163,7,1,2071,10,264,"B",TRUE,TRUE,TRUE,429,3.86286817962337,0,8,144
30,"B",1,105,0,1822,"[3, 2, 4, 1, 2, 4, 3, 1]","[3, 2, 4, 1, 2, 4, 3, 1]",189,2163,7,1,1822,30,330,"B",TRUE,FALSE,FALSE,430,4.39077936333699,0,8,109
30,"A",1,105,0,1584,"[4, 3, 1, 4, 2, 3, 1, 2]","[4, 3, 1, 4, 2, 3, 1, 2]",190,1770,7,1,1584,30,283,"A",TRUE,TRUE,FALSE,431,5.05050505050505,0,8,129
5,"B",1,105,0,1455,"[3, 2, 4, 1, 2, 4, 3, 1]","[3, 2, 4, 1, 2, 4, 3, 1]",191,2163,7,1,1455,5,202,"B",FALSE,FALSE,FALSE,432,5.49828178694158,0,8,106
30,"A",1,105,0,1434,"[4, 3, 1, 4, 2, 3, 1, 2]","[4, 3, 1, 4, 2, 3, 1, 2]",192,1770,7,1,1434,30,281,"A",FALSE,FALSE,TRUE,433,5.57880055788006,0,8,72
5,"A",1,105,0,1612,"[4, 3, 1, 4, 2, 3, 1, 2]","[4, 3, 1, 4, 2, 3, 1, 2]",193,1770,7,1,1612,5,312,"A",TRUE,FALSE,FALSE,434,4.96277915632754,0,8,128
30,"B",1,105,0,1579,"[3, 2, 4, 1, 2, 4, 3, 1]","[3, 2, 4, 1, 2, 4, 3, 1]",194,2163,7,1,1579,30,294,"B",FALSE,FALSE,FALSE,435,5.06649778340722,0,8,70
10,"B",0,105,0,1692,"[3, 2, 4, 1, 2, 4, 3, 1]","[3, 2, 4, 2]",195,2163,7,0,947,10,599,"B",TRUE,TRUE,TRUE,436,2.36406619385343,1,4,NA
10,"A",1,105,0,1568,"[4, 3, 1, 4, 2, 3, 1, 2]","[4, 3, 1, 4, 2, 3, 1, 2]",196,1770,7,1,1568,10,346,"A",TRUE,TRUE,TRUE,437,5.10204081632653,0,8,114
10,"B",1,105,0,1597,"[3, 2, 4, 1, 2, 4, 3, 1]","[3, 2, 4, 1, 2, 4, 3, 1]",197,2163,7,1,1597,10,293,"B",TRUE,TRUE,FALSE,438,5.0093926111459,0,8,119
5,"A",0,105,0,1574,"[4, 3, 1, 4, 2, 3, 1, 2]","[4, 3, 1, 4, 2, 1]",198,1770,7,0,1030,5,286,"A",FALSE,TRUE,TRUE,439,3.81194409148666,1,6,NA
30,"A",1,105,0,1500,"[4, 3, 1, 4, 2, 3, 1, 2]","[4, 3, 1, 4, 2, 3, 1, 2]",199,1770,7,1,1500,30,269,"A",FALSE,TRUE,FALSE,440,5.33333333333333,0,8,90
5,"A",1,105,0,1546,"[4, 3, 1, 4, 2, 3, 1, 2]","[4, 3, 1, 4, 2, 3, 1, 2]",200,1770,7,1,1546,5,271,"A",FALSE,TRUE,TRUE,441,5.17464424320828,0,8,71
30,"B",1,105,0,1460,"[3, 2, 4, 1, 2, 4, 3, 1]","[3, 2, 4, 1, 2, 4, 3, 1]",201,2163,7,1,1460,30,276,"B",FALSE,TRUE,FALSE,442,5.47945205479452,0,8,84
10,"A",1,105,0,1443,"[4, 3, 1, 4, 2, 3, 1, 2]","[4, 3, 1, 4, 2, 3, 1, 2]",202,1770,7,1,1443,10,241,"A",TRUE,FALSE,FALSE,443,5.54400554400554,0,8,99
30,"A",1,105,0,1434,"[4, 3, 1, 4, 2, 3, 1, 2]","[4, 3, 1, 4, 2, 3, 1, 2]",203,1770,7,1,1434,30,292,"A",TRUE,TRUE,TRUE,444,5.57880055788006,0,8,73
10,"A",1,105,0,1536,"[4, 3, 1, 4, 2, 3, 1, 2]","[4, 3, 1, 4, 2, 3, 1, 2]",204,1770,7,1,1536,10,309,"A",FALSE,TRUE,TRUE,445,5.20833333333333,0,8,121
5,"B",0,105,0,1950,"[3, 2, 4, 1, 2, 4, 3, 1]","[3, 2, 4, 1, 2, 4, 2]",205,2163,7,0,1224,5,248,"B",TRUE,TRUE,FALSE,446,3.58974358974359,1,7,NA
10,"B",1,105,0,1558,"[3, 2, 4, 1, 2, 4, 3, 1]","[3, 2, 4, 1, 2, 4, 3, 1]",206,2163,7,1,1558,10,269,"B",FALSE,FALSE,FALSE,447,5.13478818998716,0,8,163
5,"A",0,105,0,1580,"[4, 3, 1, 4, 2, 3, 1, 2]","[4, 3, 1, 4, 2, 1]",207,1770,7,0,1069,5,281,"A",TRUE,FALSE,TRUE,448,3.79746835443038,1,6,NA
10,"B",1,105,0,1618,"[3, 2, 4, 1, 2, 4, 3, 1]","[3, 2, 4, 1, 2, 4, 3, 1]",208,2163,7,1,1618,10,276,"B",TRUE,TRUE,FALSE,449,4.94437577255871,0,8,109
30,"B",1,105,0,1640,"[3, 2, 4, 1, 2, 4, 3, 1]","[3, 2, 4, 1, 2, 4, 3, 1]",209,2163,7,1,1640,30,267,"B",FALSE,FALSE,TRUE,450,4.8780487804878,0,8,119
5,"B",1,105,0,1550,"[3, 2, 4, 1, 2, 4, 3, 1]","[3, 2, 4, 1, 2, 4, 3, 1]",210,2163,8,1,1550,5,278,"B",FALSE,FALSE,TRUE,451,5.16129032258065,0,8,112
10,"B",1,105,0,1457,"[3, 2, 4, 1, 2, 4, 3, 1]","[3, 2, 4, 1, 2, 4, 3, 1]",211,2163,8,1,1457,10,281,"B",FALSE,FALSE,TRUE,452,5.49073438572409,0,8,107
10,"A",1,105,0,1470,"[4, 3, 1, 4, 2, 3, 1, 2]","[4, 3, 1, 4, 2, 3, 1, 2]",212,1770,8,1,1470,10,279,"A",TRUE,FALSE,FALSE,453,5.4421768707483,0,8,166
30,"A",0,105,0,1590,"[4, 3, 1, 4, 2, 3, 1, 2]","[4, 3, 1, 4, 1]",213,1770,8,0,838,30,261,"A",FALSE,FALSE,FALSE,454,3.14465408805031,1,5,NA
30,"B",1,105,0,1638,"[3, 2, 4, 1, 2, 4, 3, 1]","[3, 2, 4, 1, 2, 4, 3, 1]",214,2163,8,1,1638,30,291,"B",FALSE,FALSE,TRUE,455,4.88400488400488,0,8,163
5,"B",1,105,0,1525,"[3, 2, 4, 1, 2, 4, 3, 1]","[3, 2, 4, 1, 2, 4, 3, 1]",215,2163,8,1,1525,5,268,"B",FALSE,TRUE,TRUE,456,5.24590163934426,0,8,121
30,"A",1,105,0,1385,"[4, 3, 1, 4, 2, 3, 1, 2]","[4, 3, 1, 4, 2, 3, 1, 2]",216,1770,8,1,1385,30,287,"A",FALSE,TRUE,TRUE,457,5.77617328519856,0,8,76
10,"A",0,105,0,1534,"[4, 3, 1, 4, 2, 3, 1, 2]","[4, 3, 1, 4, 1]",217,1770,8,0,869,10,318,"A",FALSE,TRUE,FALSE,458,3.25945241199478,1,5,NA
5,"A",1,105,0,1414,"[4, 3, 1, 4, 2, 3, 1, 2]","[4, 3, 1, 4, 2, 3, 1, 2]",218,1770,8,1,1414,5,269,"A",TRUE,FALSE,FALSE,459,5.65770862800566,0,8,99
5,"A",1,105,0,1490,"[4, 3, 1, 4, 2, 3, 1, 2]","[4, 3, 1, 4, 2, 3, 1, 2]",219,1770,8,1,1490,5,280,"A",FALSE,FALSE,TRUE,460,5.36912751677852,0,8,119
30,"A",1,105,0,1408,"[4, 3, 1, 4, 2, 3, 1, 2]","[4, 3, 1, 4, 2, 3, 1, 2]",220,1770,8,1,1408,30,260,"A",FALSE,FALSE,TRUE,461,5.68181818181818,0,8,71
30,"B",1,105,0,1720,"[3, 2, 4, 1, 2, 4, 3, 1]","[3, 2, 4, 1, 2, 4, 3, 1]",221,2163,8,1,1720,30,323,"B",FALSE,FALSE,FALSE,462,4.65116279069767,0,8,148
10,"B",1,105,0,1599,"[3, 2, 4, 1, 2, 4, 3, 1]","[3, 2, 4, 1, 2, 4, 3, 1]",222,2163,8,1,1599,10,305,"B",TRUE,TRUE,TRUE,463,5.00312695434647,0,8,160
5,"A",1,105,0,1498,"[4, 3, 1, 4, 2, 3, 1, 2]","[4, 3, 1, 4, 2, 3, 1, 2]",223,1770,8,1,1498,5,267,"A",FALSE,FALSE,FALSE,464,5.34045393858478,0,8,94
10,"A",1,105,0,1524,"[4, 3, 1, 4, 2, 3, 1, 2]","[4, 3, 1, 4, 2, 3, 1, 2]",224,1770,8,1,1524,10,308,"A",FALSE,FALSE,TRUE,465,5.249343832021,0,8,109
30,"A",1,105,0,1553,"[4, 3, 1, 4, 2, 3, 1, 2]","[4, 3, 1, 4, 2, 3, 1, 2]",225,1770,8,1,1553,30,512,"A",FALSE,TRUE,FALSE,466,5.1513200257566,0,8,73
10,"B",0,105,0,1687,"[3, 2, 4, 1, 2, 4, 3, 1]","[3, 2, 4, 1, 2, 3]",226,2163,8,0,957,10,297,"B",FALSE,FALSE,FALSE,467,3.556609365738,1,6,NA
10,"B",1,105,0,1406,"[3, 2, 4, 1, 2, 4, 3, 1]","[3, 2, 4, 1, 2, 4, 3, 1]",227,2163,8,1,1406,10,295,"B",TRUE,FALSE,FALSE,468,5.68990042674253,0,8,60
10,"A",1,105,0,1551,"[4, 3, 1, 4, 2, 3, 1, 2]","[4, 3, 1, 4, 2, 3, 1, 2]",228,1770,8,1,1551,10,265,"A",FALSE,FALSE,FALSE,469,5.15796260477112,0,8,380
30,"B",0,105,0,1615,"[3, 2, 4, 1, 2, 4, 3, 1]","[3, 2, 4, 1, 2, 3]",229,2163,8,0,932,30,263,"B",TRUE,TRUE,FALSE,470,3.71517027863777,1,6,NA
30,"B",0,105,0,2186,"[3, 2, 4, 1, 2, 4, 3, 1]","[3, 2, 4, 1, 2, 4, 3, 2]",230,2163,8,0,1603,30,266,"B",TRUE,FALSE,TRUE,471,3.65965233302836,1,8,NA
5,"B",1,105,0,1526,"[3, 2, 4, 1, 2, 4, 3, 1]","[3, 2, 4, 1, 2, 4, 3, 1]",231,2163,8,1,1526,5,264,"B",FALSE,TRUE,FALSE,472,5.24246395806029,0,8,85
30,"B",1,105,0,1787,"[3, 2, 4, 1, 2, 4, 3, 1]","[3, 2, 4, 1, 2, 4, 3, 1]",232,2163,8,1,1787,30,286,"B",FALSE,FALSE,FALSE,473,4.47677672076105,0,8,61
5,"A",1,105,0,1508,"[4, 3, 1, 4, 2, 3, 1, 2]","[4, 3, 1, 4, 2, 3, 1, 2]",233,1770,8,1,1508,5,300,"A",FALSE,FALSE,TRUE,474,5.30503978779841,0,8,145
10,"B",1,105,0,1589,"[3, 2, 4, 1, 2, 4, 3, 1]","[3, 2, 4, 1, 2, 4, 3, 1]",234,2163,8,1,1589,10,312,"B",FALSE,FALSE,TRUE,475,5.03461296412838,0,8,113
5,"A",0,105,1,2273,"[4, 3, 1, 4, 2, 3, 1, 2]","[4, 3, 1, 4, 2, 3, 1]",235,1770,8,0,1532,5,437,"A",FALSE,TRUE,FALSE,476,3.07963044434668,0,7,NA
30,"A",1,105,0,1371,"[4, 3, 1, 4, 2, 3, 1, 2]","[4, 3, 1, 4, 2, 3, 1, 2]",236,1770,8,1,1371,30,258,"A",FALSE,TRUE,TRUE,477,5.83515681983953,0,8,75
5,"B",1,105,0,1538,"[3, 2, 4, 1, 2, 4, 3, 1]","[3, 2, 4, 1, 2, 4, 3, 1]",237,2163,8,1,1538,5,276,"B",TRUE,TRUE,FALSE,478,5.20156046814044,0,8,117
10,"A",1,105,0,1378,"[4, 3, 1, 4, 2, 3, 1, 2]","[4, 3, 1, 4, 2, 3, 1, 2]",238,1770,8,1,1378,10,288,"A",TRUE,FALSE,FALSE,479,5.8055152394775,0,8,43
5,"B",1,105,0,1517,"[3, 2, 4, 1, 2, 4, 3, 1]","[3, 2, 4, 1, 2, 4, 3, 1]",239,2163,8,1,1517,5,306,"B",TRUE,TRUE,FALSE,480,5.273566249176,0,8,139
5,"B",0,106,0,875,"[2, 1, 4, 2, 3, 4, 1, 3]","[2, 3]",0,1363,1,0,355,5,355,"B",FALSE,TRUE,FALSE,481,2.28571428571429,1,2,NA
5,"A",0,106,1,1746,"[3, 2, 4, 1, 2, 4, 3, 1]","[3, 2, 4, 1, 2]",1,1240,1,0,1117,5,274,"A",FALSE,FALSE,TRUE,482,2.86368843069874,0,5,NA
30,"A",0,106,1,1743,"[3, 2, 4, 1, 2, 4, 3, 1]","[3, 2, 4, 1, 2, 4]",2,1240,1,0,1123,30,234,"A",FALSE,FALSE,TRUE,483,3.44234079173838,0,6,NA
30,"A",0,106,1,1743,"[3, 2, 4, 1, 2, 4, 3, 1]","[3, 2, 4, 1, 2, 4]",3,1240,1,0,1077,30,339,"A",TRUE,TRUE,FALSE,484,3.44234079173838,0,6,NA
5,"A",0,106,1,1743,"[3, 2, 4, 1, 2, 4, 3, 1]","[3, 2, 4, 1, 2, 4, 3]",4,1240,1,0,1197,5,275,"A",FALSE,FALSE,FALSE,485,4.01606425702811,0,7,NA
30,"B",0,106,0,990,"[2, 1, 4, 2, 3, 4, 1, 3]","[2, 1, 4, 4]",5,1363,1,0,454,30,155,"B",FALSE,TRUE,FALSE,486,4.04040404040404,1,4,NA
30,"B",0,106,1,1867,"[2, 1, 4, 2, 3, 4, 1, 3]","[2, 1, 4, 2, 3, 4, 1]",6,1363,1,0,1344,30,70,"B",TRUE,FALSE,FALSE,487,3.74933047670059,0,7,NA
10,"A",0,106,1,1743,"[3, 2, 4, 1, 2, 4, 3, 1]","[3, 2, 4, 1, 2, 4]",7,1240,1,0,1167,10,357,"A",FALSE,FALSE,FALSE,488,3.44234079173838,0,6,NA
5,"B",0,106,0,NA,"[2, 1, 4, 2, 3, 4, 1, 3]","[1]",8,1363,1,0,0,5,232,"B",FALSE,TRUE,FALSE,489,NA,1,1,NA
5,"B",0,106,1,1866,"[2, 1, 4, 2, 3, 4, 1, 3]","[2, 1, 4, 2, 3, 4]",9,1363,1,0,1279,5,329,"B",FALSE,TRUE,TRUE,490,3.21543408360129,0,6,NA
10,"B",0,106,0,NA,"[2, 1, 4, 2, 3, 4, 1, 3]","[1]",10,1363,1,0,0,10,291,"B",FALSE,TRUE,TRUE,491,NA,1,1,NA
30,"B",0,106,1,1866,"[2, 1, 4, 2, 3, 4, 1, 3]","[2, 1, 4, 2, 3, 4, 1]",11,1363,1,0,1335,30,207,"B",TRUE,TRUE,TRUE,492,3.7513397642015,0,7,NA
5,"A",0,106,1,1743,"[3, 2, 4, 1, 2, 4, 3, 1]","[3, 2, 4, 1, 2, 4, 3]",12,1240,1,0,1133,5,315,"A",FALSE,TRUE,TRUE,493,4.01606425702811,0,7,NA
10,"A",1,106,0,1148,"[3, 2, 4, 1, 2, 4, 3, 1]","[3, 2, 4, 1, 2, 4, 3, 1]",13,1240,1,1,1148,10,226,"A",FALSE,FALSE,FALSE,494,6.96864111498258,0,8,127
30,"B",0,106,0,NA,"[2, 1, 4, 2, 3, 4, 1, 3]","[1]",14,1363,1,0,0,30,282,"B",FALSE,FALSE,TRUE,495,NA,1,1,NA
30,"A",1,106,0,1228,"[3, 2, 4, 1, 2, 4, 3, 1]","[3, 2, 4, 1, 2, 4, 3, 1]",15,1240,1,1,1228,30,276,"A",FALSE,TRUE,FALSE,496,6.51465798045603,0,8,120
10,"B",1,106,0,1271,"[2, 1, 4, 2, 3, 4, 1, 3]","[2, 1, 4, 2, 3, 4, 1, 3]",16,1363,1,1,1271,10,270,"B",FALSE,FALSE,FALSE,497,6.29425649095201,0,8,132
10,"B",0,106,0,1523,"[2, 1, 4, 2, 3, 4, 1, 3]","[2, 1, 4, 2, 3, 1]",17,1363,1,0,822,10,317,"B",TRUE,TRUE,TRUE,498,3.93959290873276,1,6,NA
5,"B",0,106,1,1867,"[2, 1, 4, 2, 3, 4, 1, 3]","[2, 1, 4, 2, 3, 4, 1]",18,1363,1,0,1238,5,237,"B",FALSE,FALSE,TRUE,499,3.74933047670059,0,7,NA
5,"A",0,106,1,1746,"[3, 2, 4, 1, 2, 4, 3, 1]","[3, 2, 4, 1, 2, 4]",19,1240,1,0,1116,5,289,"A",TRUE,TRUE,FALSE,500,3.43642611683849,0,6,NA
10,"A",0,106,0,1631,"[3, 2, 4, 1, 2, 4, 3, 1]","[3, 2, 4, 1, 2, 4, 1]",20,1240,1,0,876,10,272,"A",TRUE,TRUE,TRUE,501,4.29184549356223,1,7,NA
30,"A",1,106,0,1173,"[3, 2, 4, 1, 2, 4, 3, 1]","[3, 2, 4, 1, 2, 4, 3, 1]",21,1240,1,1,1173,30,258,"A",TRUE,TRUE,FALSE,502,6.82011935208866,0,8,99
10,"B",0,106,0,1197,"[2, 1, 4, 2, 3, 4, 1, 3]","[2, 1, 3]",22,1363,1,0,472,10,331,"B",FALSE,FALSE,TRUE,503,2.5062656641604,1,3,NA
10,"A",0,106,0,1440,"[3, 2, 4, 1, 2, 4, 3, 1]","[3, 2, 4, 1, 2, 3]",23,1240,1,0,833,10,241,"A",FALSE,TRUE,FALSE,504,4.16666666666667,1,6,NA
5,"B",0,106,1,1866,"[2, 1, 4, 2, 3, 4, 1, 3]","[2, 1, 4, 2, 3, 4, 1]",24,1363,1,0,1055,5,287,"B",FALSE,FALSE,FALSE,505,3.7513397642015,0,7,NA
5,"A",1,106,0,1230,"[3, 2, 4, 1, 2, 4, 3, 1]","[3, 2, 4, 1, 2, 4, 3, 1]",25,1240,1,1,1230,5,288,"A",TRUE,TRUE,TRUE,506,6.50406504065041,0,8,135
10,"B",0,106,0,1560,"[2, 1, 4, 2, 3, 4, 1, 3]","[2, 1, 4, 2, 3, 1]",26,1363,1,0,865,10,280,"B",TRUE,TRUE,TRUE,507,3.84615384615385,1,6,NA
30,"A",1,106,0,1206,"[3, 2, 4, 1, 2, 4, 3, 1]","[3, 2, 4, 1, 2, 4, 3, 1]",27,1240,1,1,1206,30,268,"A",FALSE,TRUE,TRUE,508,6.6334991708126,0,8,105
10,"A",1,106,0,1130,"[3, 2, 4, 1, 2, 4, 3, 1]","[3, 2, 4, 1, 2, 4, 3, 1]",28,1240,1,1,1130,10,271,"A",FALSE,FALSE,FALSE,509,7.07964601769912,0,8,104
30,"B",0,106,0,1085,"[2, 1, 4, 2, 3, 4, 1, 3]","[2, 1, 3]",29,1363,1,0,335,30,276,"B",TRUE,FALSE,FALSE,510,2.76497695852535,1,3,NA
5,"A",0,106,1,1745,"[3, 2, 4, 1, 2, 4, 3, 1]","[3, 2, 4, 1, 2, 4, 3]",30,1240,2,0,1156,5,248,"A",FALSE,TRUE,FALSE,511,4.01146131805158,0,7,NA
5,"A",0,106,1,1746,"[3, 2, 4, 1, 2, 4, 3, 1]","[3, 2, 4, 1, 2, 4, 3]",31,1240,2,0,1104,5,260,"A",FALSE,TRUE,FALSE,512,4.00916380297824,0,7,NA
5,"B",0,106,0,1765,"[2, 1, 4, 2, 3, 4, 1, 3]","[2, 1, 4, 2, 3, 1]",32,1363,2,0,1050,5,316,"B",FALSE,FALSE,FALSE,513,3.39943342776204,1,6,NA
30,"A",1,106,0,1220,"[3, 2, 4, 1, 2, 4, 3, 1]","[3, 2, 4, 1, 2, 4, 3, 1]",33,1240,2,1,1220,30,242,"A",TRUE,TRUE,TRUE,514,6.55737704918033,0,8,119
10,"A",1,106,0,1194,"[3, 2, 4, 1, 2, 4, 3, 1]","[3, 2, 4, 1, 2, 4, 3, 1]",34,1240,2,1,1194,10,241,"A",FALSE,FALSE,TRUE,515,6.7001675041876,0,8,132
30,"A",0,106,1,1743,"[3, 2, 4, 1, 2, 4, 3, 1]","[3, 2, 4, 1, 2, 4, 3]",35,1240,2,0,1202,30,255,"A",FALSE,TRUE,TRUE,516,4.01606425702811,0,7,NA
5,"B",0,106,0,1166,"[2, 1, 4, 2, 3, 4, 1, 3]","[2, 1, 4, 3]",36,1363,2,0,485,5,241,"B",FALSE,TRUE,FALSE,517,3.43053173241852,1,4,NA
5,"A",1,106,0,1157,"[3, 2, 4, 1, 2, 4, 3, 1]","[3, 2, 4, 1, 2, 4, 3, 1]",37,1240,2,1,1157,5,241,"A",TRUE,TRUE,FALSE,518,6.91443388072602,0,8,103
30,"B",0,106,0,1694,"[2, 1, 4, 2, 3, 4, 1, 3]","[2, 1, 4, 2, 3, 1]",38,1363,2,0,1017,30,288,"B",TRUE,FALSE,TRUE,519,3.54191263282172,1,6,NA
30,"A",0,106,1,1743,"[3, 2, 4, 1, 2, 4, 3, 1]","[3, 2, 4, 1, 2, 4, 3]",39,1240,2,0,1140,30,293,"A",FALSE,TRUE,FALSE,520,4.01606425702811,0,7,NA
10,"B",0,106,0,1674,"[2, 1, 4, 2, 3, 4, 1, 3]","[2, 1, 4, 2, 3, 1]",40,1363,2,0,1008,10,288,"B",FALSE,FALSE,TRUE,521,3.584229390681,1,6,NA
10,"A",0,106,1,1744,"[3, 2, 4, 1, 2, 4, 3, 1]","[3, 2, 4, 1, 2, 4]",41,1240,2,0,1040,10,255,"A",TRUE,FALSE,FALSE,522,3.44036697247706,0,6,NA
10,"B",0,106,1,1866,"[2, 1, 4, 2, 3, 4, 1, 3]","[2, 1, 4, 2, 3, 4, 1]",42,1363,2,0,1186,10,261,"B",FALSE,TRUE,FALSE,523,3.7513397642015,0,7,NA
5,"B",1,106,0,1293,"[2, 1, 4, 2, 3, 4, 1, 3]","[2, 1, 4, 2, 3, 4, 1, 3]",43,1363,2,1,1293,5,292,"B",TRUE,TRUE,FALSE,524,6.18716163959783,0,8,164
5,"A",1,106,0,1203,"[3, 2, 4, 1, 2, 4, 3, 1]","[3, 2, 4, 1, 2, 4, 3, 1]",44,1240,2,1,1203,5,240,"A",FALSE,FALSE,FALSE,525,6.65004156275977,0,8,128
10,"B",0,106,1,1866,"[2, 1, 4, 2, 3, 4, 1, 3]","[2, 1, 4, 2, 3, 4, 1]",45,1363,2,0,1189,10,245,"B",TRUE,FALSE,FALSE,526,3.7513397642015,0,7,NA
5,"B",1,106,0,1292,"[2, 1, 4, 2, 3, 4, 1, 3]","[2, 1, 4, 2, 3, 4, 1, 3]",46,1363,2,1,1292,5,266,"B",TRUE,TRUE,TRUE,527,6.19195046439629,0,8,141
5,"A",0,106,1,1743,"[3, 2, 4, 1, 2, 4, 3, 1]","[3, 2, 4, 1, 2, 4, 3]",47,1240,2,0,1144,5,221,"A",FALSE,FALSE,FALSE,528,4.01606425702811,0,7,NA
30,"B",0,106,0,1330,"[2, 1, 4, 2, 3, 4, 1, 3]","[2, 1, 2]",48,1363,2,0,523,30,403,"B",TRUE,FALSE,FALSE,529,2.25563909774436,1,3,NA
30,"A",0,106,1,1743,"[3, 2, 4, 1, 2, 4, 3, 1]","[3, 2, 4, 1, 2, 4, 3]",49,1240,2,0,1141,30,221,"A",TRUE,TRUE,FALSE,530,4.01606425702811,0,7,NA
10,"B",1,106,0,1239,"[2, 1, 4, 2, 3, 4, 1, 3]","[2, 1, 4, 2, 3, 4, 1, 3]",50,1363,2,1,1239,10,276,"B",TRUE,TRUE,FALSE,531,6.45682001614205,0,8,149
10,"A",1,106,0,1208,"[3, 2, 4, 1, 2, 4, 3, 1]","[3, 2, 4, 1, 2, 4, 3, 1]",51,1240,2,1,1208,10,247,"A",FALSE,FALSE,TRUE,532,6.62251655629139,0,8,141
30,"B",1,106,0,1115,"[2, 1, 4, 2, 3, 4, 1, 3]","[2, 1, 4, 2, 3, 4, 1, 3]",52,1363,2,1,1115,30,252,"B",TRUE,FALSE,FALSE,533,7.17488789237668,0,8,136
10,"B",1,106,0,1143,"[2, 1, 4, 2, 3, 4, 1, 3]","[2, 1, 4, 2, 3, 4, 1, 3]",53,1363,2,1,1143,10,255,"B",TRUE,TRUE,FALSE,534,6.99912510936133,0,8,135
10,"A",0,106,1,1743,"[3, 2, 4, 1, 2, 4, 3, 1]","[3, 2, 4, 1, 2, 4, 3]",54,1240,2,0,1157,10,286,"A",FALSE,FALSE,TRUE,535,4.01606425702811,0,7,NA
10,"A",0,106,0,1374,"[3, 2, 4, 1, 2, 4, 3, 1]","[3, 2, 4, 1, 2, 3]",55,1240,2,0,771,10,260,"A",TRUE,FALSE,FALSE,536,4.36681222707424,1,6,NA
5,"B",0,106,1,1866,"[2, 1, 4, 2, 3, 4, 1, 3]","[2, 1, 4, 2, 3]",56,1363,2,0,1249,5,333,"B",FALSE,FALSE,TRUE,537,2.67952840300107,0,5,NA
30,"B",1,106,0,1240,"[2, 1, 4, 2, 3, 4, 1, 3]","[2, 1, 4, 2, 3, 4, 1, 3]",57,1363,2,1,1240,30,301,"B",FALSE,FALSE,FALSE,538,6.45161290322581,0,8,130
30,"B",1,106,0,1181,"[2, 1, 4, 2, 3, 4, 1, 3]","[2, 1, 4, 2, 3, 4, 1, 3]",58,1363,2,1,1181,30,245,"B",FALSE,TRUE,FALSE,539,6.77392040643522,0,8,173
30,"A",1,106,0,1174,"[3, 2, 4, 1, 2, 4, 3, 1]","[3, 2, 4, 1, 2, 4, 3, 1]",59,1240,2,1,1174,30,281,"A",TRUE,FALSE,FALSE,540,6.81431005110733,0,8,107
30,"B",0,106,0,1732,"[2, 1, 4, 2, 3, 4, 1, 3]","[2, 1, 4, 2, 3, 1]",60,1363,3,0,1032,30,296,"B",FALSE,TRUE,TRUE,541,3.46420323325635,1,6,NA
5,"B",0,106,0,1431,"[2, 1, 4, 2, 3, 4, 1, 3]","[2, 1, 4, 3]",61,1363,3,0,560,5,294,"B",TRUE,TRUE,TRUE,542,2.79524807826695,1,4,NA
30,"B",0,106,1,1866,"[2, 1, 4, 2, 3, 4, 1, 3]","[2, 1, 4, 2, 3, 4, 1]",62,1363,3,0,1325,30,308,"B",TRUE,TRUE,FALSE,543,3.7513397642015,0,7,NA
10,"B",1,106,0,1310,"[2, 1, 4, 2, 3, 4, 1, 3]","[2, 1, 4, 2, 3, 4, 1, 3]",63,1363,3,1,1310,10,257,"B",FALSE,TRUE,FALSE,544,6.10687022900763,0,8,168
5,"B",1,106,0,1289,"[2, 1, 4, 2, 3, 4, 1, 3]","[2, 1, 4, 2, 3, 4, 1, 3]",64,1363,3,1,1289,5,414,"B",FALSE,TRUE,FALSE,545,6.20636152055857,0,8,129
5,"A",1,106,0,1141,"[3, 2, 4, 1, 2, 4, 3, 1]","[3, 2, 4, 1, 2, 4, 3, 1]",65,1240,3,1,1141,5,258,"A",FALSE,FALSE,FALSE,546,7.011393514461,0,8,126
30,"A",0,106,0,1385,"[3, 2, 4, 1, 2, 4, 3, 1]","[3, 2, 4, 1, 2, 3]",66,1240,3,0,769,30,269,"A",FALSE,FALSE,TRUE,547,4.33212996389892,1,6,NA
30,"B",1,106,0,1269,"[2, 1, 4, 2, 3, 4, 1, 3]","[2, 1, 4, 2, 3, 4, 1, 3]",67,1363,3,1,1269,30,312,"B",FALSE,TRUE,FALSE,548,6.30417651694247,0,8,125
10,"A",0,106,0,1059,"[3, 2, 4, 1, 2, 4, 3, 1]","[3, 2, 1]",68,1240,3,0,408,10,296,"A",TRUE,TRUE,TRUE,549,2.8328611898017,1,3,NA
30,"A",0,106,0,1356,"[3, 2, 4, 1, 2, 4, 3, 1]","[3, 2, 4, 2]",69,1240,3,0,546,30,251,"A",TRUE,FALSE,FALSE,550,2.94985250737463,1,4,NA
10,"B",1,106,0,1234,"[2, 1, 4, 2, 3, 4, 1, 3]","[2, 1, 4, 2, 3, 4, 1, 3]",70,1363,3,1,1234,10,317,"B",TRUE,TRUE,FALSE,551,6.48298217179903,0,8,147
30,"B",0,106,0,NA,"[2, 1, 4, 2, 3, 4, 1, 3]","[1]",71,1363,3,0,0,30,347,"B",FALSE,TRUE,TRUE,552,NA,1,1,NA
10,"B",0,106,1,1866,"[2, 1, 4, 2, 3, 4, 1, 3]","[2, 1, 4]",72,1363,3,0,846,10,296,"B",FALSE,TRUE,FALSE,553,1.60771704180064,0,3,NA
10,"A",0,106,1,1746,"[3, 2, 4, 1, 2, 4, 3, 1]","[3, 2, 4, 1, 2, 4, 3]",73,1240,3,0,1219,10,312,"A",FALSE,FALSE,FALSE,554,4.00916380297824,0,7,NA
10,"A",0,106,1,1747,"[3, 2, 4, 1, 2, 4, 3, 1]","[3, 2, 4, 1, 2, 4, 3]",74,1240,3,0,1239,10,296,"A",TRUE,TRUE,TRUE,555,4.00686891814539,0,7,NA
5,"A",0,106,0,1565,"[3, 2, 4, 1, 2, 4, 3, 1]","[3, 2, 4, 1, 2, 3]",75,1240,3,0,938,5,318,"A",FALSE,FALSE,TRUE,556,3.83386581469649,1,6,NA
5,"A",1,106,0,1198,"[3, 2, 4, 1, 2, 4, 3, 1]","[3, 2, 4, 1, 2, 4, 3, 1]",76,1240,3,1,1198,5,255,"A",TRUE,FALSE,TRUE,557,6.67779632721202,0,8,88
5,"B",1,106,0,1203,"[2, 1, 4, 2, 3, 4, 1, 3]","[2, 1, 4, 2, 3, 4, 1, 3]",77,1363,3,1,1203,5,261,"B",FALSE,TRUE,TRUE,558,6.65004156275977,0,8,150
30,"A",1,106,0,1072,"[3, 2, 4, 1, 2, 4, 3, 1]","[3, 2, 4, 1, 2, 4, 3, 1]",78,1240,3,1,1072,30,214,"A",TRUE,FALSE,TRUE,559,7.46268656716418,0,8,141
30,"A",0,106,0,1457,"[3, 2, 4, 1, 2, 4, 3, 1]","[3, 2, 4, 1, 2, 3]",79,1240,3,0,844,30,299,"A",TRUE,TRUE,TRUE,560,4.11805078929307,1,6,NA
10,"B",0,106,0,1311,"[2, 1, 4, 2, 3, 4, 1, 3]","[2, 1, 4, 3]",80,1363,3,0,653,10,325,"B",FALSE,TRUE,FALSE,561,3.0511060259344,1,4,NA
5,"B",0,106,1,1866,"[2, 1, 4, 2, 3, 4, 1, 3]","[2, 1, 4, 2, 3, 4]",81,1363,3,0,1334,5,428,"B",TRUE,TRUE,TRUE,562,3.21543408360129,0,6,NA
10,"A",0,106,1,1745,"[3, 2, 4, 1, 2, 4, 3, 1]","[3, 2, 4, 1, 2]",82,1240,3,0,1236,10,299,"A",FALSE,TRUE,TRUE,563,2.86532951289398,0,5,NA
10,"A",1,106,0,1176,"[3, 2, 4, 1, 2, 4, 3, 1]","[3, 2, 4, 1, 2, 4, 3, 1]",83,1240,3,1,1176,10,265,"A",TRUE,TRUE,FALSE,564,6.80272108843537,0,8,119
5,"A",0,106,1,1743,"[3, 2, 4, 1, 2, 4, 3, 1]","[3, 2, 4, 1, 2, 4]",84,1240,3,0,1009,5,239,"A",FALSE,FALSE,FALSE,565,3.44234079173838,0,6,NA
5,"B",0,106,0,1614,"[2, 1, 4, 2, 3, 4, 1, 3]","[2, 1, 4, 2, 3, 1]",85,1363,3,0,925,5,283,"B",TRUE,FALSE,FALSE,566,3.71747211895911,1,6,NA
30,"B",1,106,0,1275,"[2, 1, 4, 2, 3, 4, 1, 3]","[2, 1, 4, 2, 3, 4, 1, 3]",86,1363,3,1,1275,30,258,"B",FALSE,FALSE,TRUE,567,6.27450980392157,0,8,165
10,"B",1,106,0,1122,"[2, 1, 4, 2, 3, 4, 1, 3]","[2, 1, 4, 2, 3, 4, 1, 3]",87,1363,3,1,1122,10,261,"B",FALSE,FALSE,FALSE,568,7.1301247771836,0,8,133
5,"A",0,106,1,1743,"[3, 2, 4, 1, 2, 4, 3, 1]","[3, 2, 4, 1, 2, 4, 3]",88,1240,3,0,1140,5,204,"A",FALSE,TRUE,TRUE,569,4.01606425702811,0,7,NA
30,"A",0,106,0,1372,"[3, 2, 4, 1, 2, 4, 3, 1]","[3, 2, 4, 1, 3]",89,1240,3,0,661,30,258,"A",TRUE,TRUE,TRUE,570,3.64431486880467,1,5,NA
30,"A",0,106,1,1745,"[3, 2, 4, 1, 2, 4, 3, 1]","[3, 2, 4, 1, 2, 4, 3]",90,1240,4,0,1175,30,219,"A",FALSE,TRUE,TRUE,571,4.01146131805158,0,7,NA
5,"B",1,106,0,1302,"[2, 1, 4, 2, 3, 4, 1, 3]","[2, 1, 4, 2, 3, 4, 1, 3]",91,1363,4,1,1302,5,248,"B",TRUE,FALSE,TRUE,572,6.14439324116743,0,8,201
10,"A",0,106,1,1743,"[3, 2, 4, 1, 2, 4, 3, 1]","[3, 2, 4, 1, 2, 4, 3]",92,1240,4,0,1199,10,256,"A",FALSE,FALSE,FALSE,573,4.01606425702811,0,7,NA
10,"A",1,106,0,1181,"[3, 2, 4, 1, 2, 4, 3, 1]","[3, 2, 4, 1, 2, 4, 3, 1]",93,1240,4,1,1181,10,226,"A",TRUE,FALSE,FALSE,574,6.77392040643522,0,8,75
30,"B",1,106,0,1239,"[2, 1, 4, 2, 3, 4, 1, 3]","[2, 1, 4, 2, 3, 4, 1, 3]",94,1363,4,1,1239,30,293,"B",FALSE,TRUE,FALSE,575,6.45682001614205,0,8,149
5,"B",0,106,0,NA,"[2, 1, 4, 2, 3, 4, 1, 3]","[1]",95,1363,4,0,0,5,308,"B",TRUE,FALSE,TRUE,576,NA,1,1,NA
10,"B",1,106,0,1287,"[2, 1, 4, 2, 3, 4, 1, 3]","[2, 1, 4, 2, 3, 4, 1, 3]",96,1363,4,1,1287,10,227,"B",FALSE,TRUE,FALSE,577,6.21600621600622,0,8,131
5,"A",1,106,0,1152,"[3, 2, 4, 1, 2, 4, 3, 1]","[3, 2, 4, 1, 2, 4, 3, 1]",97,1240,4,1,1152,5,313,"A",FALSE,FALSE,TRUE,578,6.94444444444444,0,8,92
30,"A",0,106,0,1189,"[3, 2, 4, 1, 2, 4, 3, 1]","[3, 2, 4, 1, 1]",98,1240,4,0,670,30,267,"A",FALSE,FALSE,FALSE,579,4.20521446593776,1,5,NA
10,"B",1,106,0,1207,"[2, 1, 4, 2, 3, 4, 1, 3]","[2, 1, 4, 2, 3, 4, 1, 3]",99,1363,4,1,1207,10,272,"B",FALSE,FALSE,FALSE,580,6.62800331400166,0,8,168
10,"B",0,106,1,1866,"[2, 1, 4, 2, 3, 4, 1, 3]","[2, 1, 4, 2, 3, 4, 1]",100,1363,4,0,1214,10,295,"B",FALSE,FALSE,FALSE,581,3.7513397642015,0,7,NA
10,"A",0,106,0,1370,"[3, 2, 4, 1, 2, 4, 3, 1]","[3, 2, 4, 1, 2, 3]",101,1240,4,0,744,10,258,"A",FALSE,FALSE,FALSE,582,4.37956204379562,1,6,NA
5,"B",0,106,0,1820,"[2, 1, 4, 2, 3, 4, 1, 3]","[2, 1, 4, 2, 3, 4, 1, 2]",102,1363,4,0,1038,5,214,"B",TRUE,TRUE,FALSE,583,4.3956043956044,1,8,NA
30,"A",0,106,0,1399,"[3, 2, 4, 1, 2, 4, 3, 1]","[3, 2, 4, 1, 2, 3]",103,1240,4,0,742,30,217,"A",FALSE,FALSE,FALSE,584,4.28877769835597,1,6,NA
30,"B",1,106,0,1290,"[2, 1, 4, 2, 3, 4, 1, 3]","[2, 1, 4, 2, 3, 4, 1, 3]",104,1363,4,1,1290,30,207,"B",FALSE,TRUE,TRUE,585,6.2015503875969,0,8,188
10,"B",0,106,0,1354,"[2, 1, 4, 2, 3, 4, 1, 3]","[2, 1, 4, 3]",105,1363,4,0,581,10,295,"B",TRUE,FALSE,TRUE,586,2.95420974889217,1,4,NA
30,"B",1,106,0,1152,"[2, 1, 4, 2, 3, 4, 1, 3]","[2, 1, 4, 2, 3, 4, 1, 3]",106,1363,4,1,1152,30,180,"B",TRUE,TRUE,FALSE,587,6.94444444444444,0,8,117
30,"A",0,106,0,1551,"[3, 2, 4, 1, 2, 4, 3, 1]","[3, 2, 4, 1, 3]",107,1240,4,0,772,30,348,"A",TRUE,TRUE,TRUE,588,3.22372662798195,1,5,NA
5,"A",0,106,1,1743,"[3, 2, 4, 1, 2, 4, 3, 1]","[3, 2, 4, 1, 2, 4, 3]",108,1240,4,0,1207,5,296,"A",TRUE,FALSE,FALSE,589,4.01606425702811,0,7,NA
5,"A",0,106,0,1593,"[3, 2, 4, 1, 2, 4, 3, 1]","[3, 2, 4, 1, 2, 4, 1]",109,1240,4,0,900,5,230,"A",FALSE,FALSE,TRUE,590,4.39422473320778,1,7,NA
30,"A",0,106,0,1398,"[3, 2, 4, 1, 2, 4, 3, 1]","[3, 2, 4, 1, 2, 3]",110,1240,4,0,806,30,292,"A",TRUE,FALSE,TRUE,591,4.29184549356223,1,6,NA
10,"A",0,106,1,1746,"[3, 2, 4, 1, 2, 4, 3, 1]","[3, 2, 4, 1, 2, 4, 3]",111,1240,4,0,1165,10,301,"A",TRUE,FALSE,TRUE,592,4.00916380297824,0,7,NA
30,"B",0,106,0,NA,"[2, 1, 4, 2, 3, 4, 1, 3]","[1]",112,1363,4,0,0,30,320,"B",TRUE,TRUE,TRUE,593,NA,1,1,NA
5,"A",0,106,0,1103,"[3, 2, 4, 1, 2, 4, 3, 1]","[3, 2, 1]",113,1240,4,0,297,5,234,"A",TRUE,FALSE,FALSE,594,2.71985494106981,1,3,NA
10,"A",0,106,0,1586,"[3, 2, 4, 1, 2, 4, 3, 1]","[3, 2, 4, 1, 2, 4, 1]",114,1240,4,0,920,10,230,"A",FALSE,FALSE,FALSE,595,4.41361916771753,1,7,NA
30,"B",1,106,0,1170,"[2, 1, 4, 2, 3, 4, 1, 3]","[2, 1, 4, 2, 3, 4, 1, 3]",115,1363,4,1,1170,30,262,"B",FALSE,TRUE,FALSE,596,6.83760683760684,0,8,160
5,"B",0,106,1,1866,"[2, 1, 4, 2, 3, 4, 1, 3]","[2, 1, 4, 2, 3, 4, 1]",116,1363,4,0,1207,5,241,"B",FALSE,TRUE,FALSE,597,3.7513397642015,0,7,NA
5,"B",0,106,1,1866,"[2, 1, 4, 2, 3, 4, 1, 3]","[2, 1, 4, 2, 3, 4, 1]",117,1363,4,0,1299,5,237,"B",TRUE,TRUE,FALSE,598,3.7513397642015,0,7,NA
10,"B",1,106,0,1167,"[2, 1, 4, 2, 3, 4, 1, 3]","[2, 1, 4, 2, 3, 4, 1, 3]",118,1363,4,1,1167,10,259,"B",FALSE,FALSE,TRUE,599,6.85518423307626,0,8,110
5,"A",1,106,0,1183,"[3, 2, 4, 1, 2, 4, 3, 1]","[3, 2, 4, 1, 2, 4, 3, 1]",119,1240,4,1,1183,5,252,"A",TRUE,FALSE,FALSE,600,6.76246830092984,0,8,128
5,"A",0,106,1,1743,"[3, 2, 4, 1, 2, 4, 3, 1]","[3, 2, 4, 1, 2, 4, 3]",120,1240,5,0,1151,5,267,"A",TRUE,TRUE,FALSE,601,4.01606425702811,0,7,NA
30,"B",1,106,0,1196,"[2, 1, 4, 2, 3, 4, 1, 3]","[2, 1, 4, 2, 3, 4, 1, 3]",121,1363,5,1,1196,30,256,"B",TRUE,FALSE,TRUE,602,6.68896321070234,0,8,129
5,"A",1,106,0,1172,"[3, 2, 4, 1, 2, 4, 3, 1]","[3, 2, 4, 1, 2, 4, 3, 1]",122,1240,5,1,1172,5,271,"A",TRUE,TRUE,TRUE,603,6.8259385665529,0,8,103
5,"A",1,106,0,1192,"[3, 2, 4, 1, 2, 4, 3, 1]","[3, 2, 4, 1, 2, 4, 3, 1]",123,1240,5,1,1192,5,248,"A",TRUE,TRUE,TRUE,604,6.71140939597315,0,8,80
30,"B",1,106,0,1331,"[2, 1, 4, 2, 3, 4, 1, 3]","[2, 1, 4, 2, 3, 4, 1, 3]",124,1363,5,1,1331,30,271,"B",TRUE,FALSE,FALSE,605,6.01051840721262,0,8,144
10,"B",1,106,0,1153,"[2, 1, 4, 2, 3, 4, 1, 3]","[2, 1, 4, 2, 3, 4, 1, 3]",125,1363,5,1,1153,10,263,"B",TRUE,FALSE,TRUE,606,6.93842150910668,0,8,127
10,"A",0,106,1,1743,"[3, 2, 4, 1, 2, 4, 3, 1]","[3, 2, 4, 1, 2, 4]",126,1240,5,0,1061,10,277,"A",FALSE,FALSE,TRUE,607,3.44234079173838,0,6,NA
30,"A",0,106,1,1743,"[3, 2, 4, 1, 2, 4, 3, 1]","[3, 2, 4, 1]",127,1240,5,0,1039,30,226,"A",FALSE,TRUE,FALSE,608,2.29489386115892,0,4,NA
5,"B",0,106,0,NA,"[2, 1, 4, 2, 3, 4, 1, 3]","[1]",128,1363,5,0,0,5,306,"B",FALSE,FALSE,FALSE,609,NA,1,1,NA
30,"A",0,106,1,1743,"[3, 2, 4, 1, 2, 4, 3, 1]","[3, 2, 4, 1, 2, 4]",129,1240,5,0,1029,30,223,"A",TRUE,TRUE,FALSE,610,3.44234079173838,0,6,NA
5,"B",0,106,0,1244,"[2, 1, 4, 2, 3, 4, 1, 3]","[2, 1, 4, 3]",130,1363,5,0,523,5,245,"B",TRUE,FALSE,FALSE,611,3.21543408360129,1,4,NA
5,"A",0,106,1,1745,"[3, 2, 4, 1, 2, 4, 3, 1]","[3, 2, 4, 1, 2, 4, 3]",131,1240,5,0,1163,5,239,"A",FALSE,FALSE,FALSE,612,4.01146131805158,0,7,NA
10,"A",1,106,0,1192,"[3, 2, 4, 1, 2, 4, 3, 1]","[3, 2, 4, 1, 2, 4, 3, 1]",132,1240,5,1,1192,10,246,"A",FALSE,TRUE,FALSE,613,6.71140939597315,0,8,122
10,"B",0,106,0,1499,"[2, 1, 4, 2, 3, 4, 1, 3]","[2, 1, 4, 3]",133,1363,5,0,704,10,265,"B",TRUE,FALSE,FALSE,614,2.66844563042028,1,4,NA
5,"B",0,106,0,1695,"[2, 1, 4, 2, 3, 4, 1, 3]","[2, 1, 4, 2, 3, 1]",134,1363,5,0,1016,5,358,"B",TRUE,FALSE,FALSE,615,3.53982300884956,1,6,NA
5,"A",0,106,0,1469,"[3, 2, 4, 1, 2, 4, 3, 1]","[3, 2, 4, 1, 3]",135,1240,5,0,706,5,289,"A",FALSE,FALSE,FALSE,616,3.40367597004765,1,5,NA
30,"A",1,106,0,1208,"[3, 2, 4, 1, 2, 4, 3, 1]","[3, 2, 4, 1, 2, 4, 3, 1]",136,1240,5,1,1208,30,262,"A",FALSE,FALSE,FALSE,617,6.62251655629139,0,8,100
10,"A",1,106,0,1111,"[3, 2, 4, 1, 2, 4, 3, 1]","[3, 2, 4, 1, 2, 4, 3, 1]",137,1240,5,1,1111,10,263,"A",FALSE,TRUE,FALSE,618,7.2007200720072,0,8,69
10,"A",1,106,0,1190,"[3, 2, 4, 1, 2, 4, 3, 1]","[3, 2, 4, 1, 2, 4, 3, 1]",138,1240,5,1,1190,10,305,"A",FALSE,FALSE,TRUE,619,6.72268907563025,0,8,72
5,"B",1,106,0,1161,"[2, 1, 4, 2, 3, 4, 1, 3]","[2, 1, 4, 2, 3, 4, 1, 3]",139,1363,5,1,1161,5,293,"B",TRUE,TRUE,TRUE,620,6.89061154177433,0,8,183
5,"B",1,106,0,1142,"[2, 1, 4, 2, 3, 4, 1, 3]","[2, 1, 4, 2, 3, 4, 1, 3]",140,1363,5,1,1142,5,269,"B",FALSE,FALSE,FALSE,621,7.00525394045534,0,8,151
30,"B",1,106,0,1175,"[2, 1, 4, 2, 3, 4, 1, 3]","[2, 1, 4, 2, 3, 4, 1, 3]",141,1363,5,1,1175,30,275,"B",FALSE,FALSE,FALSE,622,6.80851063829787,0,8,202
30,"B",1,106,0,1160,"[2, 1, 4, 2, 3, 4, 1, 3]","[2, 1, 4, 2, 3, 4, 1, 3]",142,1363,5,1,1160,30,331,"B",TRUE,TRUE,FALSE,623,6.89655172413793,0,8,117
30,"A",0,106,0,1380,"[3, 2, 4, 1, 2, 4, 3, 1]","[3, 2, 4, 1, 3]",143,1240,5,0,650,30,256,"A",FALSE,FALSE,TRUE,624,3.6231884057971,1,5,NA
10,"B",0,106,0,1346,"[2, 1, 4, 2, 3, 4, 1, 3]","[2, 1, 4, 3]",144,1363,5,0,689,10,337,"B",FALSE,TRUE,FALSE,625,2.97176820208024,1,4,NA
30,"A",1,106,0,1220,"[3, 2, 4, 1, 2, 4, 3, 1]","[3, 2, 4, 1, 2, 4, 3, 1]",145,1240,5,1,1220,30,274,"A",FALSE,TRUE,TRUE,626,6.55737704918033,0,8,116
10,"A",1,106,0,1144,"[3, 2, 4, 1, 2, 4, 3, 1]","[3, 2, 4, 1, 2, 4, 3, 1]",146,1240,5,1,1144,10,267,"A",TRUE,FALSE,TRUE,627,6.99300699300699,0,8,99
10,"B",1,106,0,1220,"[2, 1, 4, 2, 3, 4, 1, 3]","[2, 1, 4, 2, 3, 4, 1, 3]",147,1363,5,1,1220,10,312,"B",FALSE,FALSE,FALSE,628,6.55737704918033,0,8,152
10,"B",1,106,0,1094,"[2, 1, 4, 2, 3, 4, 1, 3]","[2, 1, 4, 2, 3, 4, 1, 3]",148,1363,5,1,1094,10,267,"B",FALSE,FALSE,FALSE,629,7.31261425959781,0,8,133
30,"B",1,106,0,1329,"[2, 1, 4, 2, 3, 4, 1, 3]","[2, 1, 4, 2, 3, 4, 1, 3]",149,1363,5,1,1329,30,286,"B",TRUE,FALSE,FALSE,630,6.01956358164033,0,8,216
10,"B",1,106,0,1300,"[2, 1, 4, 2, 3, 4, 1, 3]","[2, 1, 4, 2, 3, 4, 1, 3]",150,1363,6,1,1300,10,297,"B",FALSE,FALSE,TRUE,631,6.15384615384615,0,8,126
30,"A",0,106,0,1377,"[3, 2, 4, 1, 2, 4, 3, 1]","[3, 2, 4, 1, 4]",151,1240,6,0,605,30,241,"A",TRUE,TRUE,TRUE,632,3.63108206245461,1,5,NA
5,"B",1,106,0,1231,"[2, 1, 4, 2, 3, 4, 1, 3]","[2, 1, 4, 2, 3, 4, 1, 3]",152,1363,6,1,1231,5,237,"B",TRUE,FALSE,FALSE,633,6.49878147847279,0,8,178
30,"B",0,106,0,NA,"[2, 1, 4, 2, 3, 4, 1, 3]","[1]",153,1363,6,0,0,30,293,"B",TRUE,FALSE,FALSE,634,NA,1,1,NA
10,"A",0,106,0,1741,"[3, 2, 4, 1, 2, 4, 3, 1]","[3, 2, 4, 1, 2, 3]",154,1240,6,0,986,10,256,"A",TRUE,FALSE,FALSE,635,3.44629523262493,1,6,NA
30,"A",0,106,0,1505,"[3, 2, 4, 1, 2, 4, 3, 1]","[3, 2, 4, 1, 2, 3]",155,1240,6,0,905,30,285,"A",TRUE,TRUE,FALSE,636,3.98671096345515,1,6,NA
5,"A",0,106,0,1451,"[3, 2, 4, 1, 2, 4, 3, 1]","[3, 2, 4, 1, 3]",156,1240,6,0,706,5,255,"A",TRUE,FALSE,TRUE,637,3.44589937973811,1,5,NA
30,"B",0,106,0,1596,"[2, 1, 4, 2, 3, 4, 1, 3]","[2, 1, 4, 2, 3, 1]",157,1363,6,0,926,30,283,"B",FALSE,TRUE,TRUE,638,3.7593984962406,1,6,NA
10,"B",0,106,1,1866,"[2, 1, 4, 2, 3, 4, 1, 3]","[2, 1, 4, 2, 3, 4, 1]",158,1363,6,0,1317,10,288,"B",TRUE,FALSE,TRUE,639,3.7513397642015,0,7,NA
30,"A",1,106,0,1182,"[3, 2, 4, 1, 2, 4, 3, 1]","[3, 2, 4, 1, 2, 4, 3, 1]",159,1240,6,1,1182,30,274,"A",TRUE,TRUE,TRUE,640,6.76818950930626,0,8,86
30,"B",0,106,0,1340,"[2, 1, 4, 2, 3, 4, 1, 3]","[2, 1, 4, 3]",160,1363,6,0,667,30,309,"B",FALSE,TRUE,TRUE,641,2.98507462686567,1,4,NA
30,"A",0,106,0,1475,"[3, 2, 4, 1, 2, 4, 3, 1]","[3, 2, 4, 1, 2, 3]",161,1240,6,0,844,30,253,"A",FALSE,TRUE,TRUE,642,4.06779661016949,1,6,NA
10,"B",1,106,0,1224,"[2, 1, 4, 2, 3, 4, 1, 3]","[2, 1, 4, 2, 3, 4, 1, 3]",162,1363,6,1,1224,10,264,"B",TRUE,FALSE,FALSE,643,6.5359477124183,0,8,133
10,"A",0,106,0,1544,"[3, 2, 4, 1, 2, 4, 3, 1]","[3, 2, 4, 1, 4]",163,1240,6,0,725,10,351,"A",FALSE,TRUE,FALSE,644,3.23834196891192,1,5,NA
30,"B",0,106,1,1866,"[2, 1, 4, 2, 3, 4, 1, 3]","[2, 1, 4, 2, 3, 4, 1]",164,1363,6,0,1271,30,274,"B",FALSE,TRUE,FALSE,645,3.7513397642015,0,7,NA
5,"B",0,106,1,1866,"[2, 1, 4, 2, 3, 4, 1, 3]","[2, 1, 4, 2, 3, 4, 1]",165,1363,6,0,1205,5,239,"B",TRUE,TRUE,TRUE,646,3.7513397642015,0,7,NA
10,"A",1,106,0,1132,"[3, 2, 4, 1, 2, 4, 3, 1]","[3, 2, 4, 1, 2, 4, 3, 1]",166,1240,6,1,1132,10,244,"A",FALSE,FALSE,FALSE,647,7.06713780918728,0,8,126
5,"A",0,106,0,1374,"[3, 2, 4, 1, 2, 4, 3, 1]","[3, 2, 4, 4]",167,1240,6,0,844,5,541,"A",TRUE,FALSE,FALSE,648,2.91120815138282,1,4,NA
5,"A",0,106,1,1743,"[3, 2, 4, 1, 2, 4, 3, 1]","[3, 2, 4, 1, 2, 4, 3]",168,1240,6,0,1168,5,253,"A",FALSE,FALSE,TRUE,649,4.01606425702811,0,7,NA
5,"B",1,106,0,1301,"[2, 1, 4, 2, 3, 4, 1, 3]","[2, 1, 4, 2, 3, 4, 1, 3]",169,1363,6,1,1301,5,274,"B",FALSE,FALSE,TRUE,650,6.14911606456572,0,8,121
5,"A",0,106,0,1702,"[3, 2, 4, 1, 2, 4, 3, 1]","[3, 2, 4, 1, 3]",170,1240,6,0,898,5,290,"A",TRUE,TRUE,FALSE,651,2.93772032902468,1,5,NA
10,"A",1,106,0,1223,"[3, 2, 4, 1, 2, 4, 3, 1]","[3, 2, 4, 1, 2, 4, 3, 1]",171,1240,6,1,1223,10,250,"A",TRUE,TRUE,TRUE,652,6.54129190515127,0,8,121
10,"B",0,106,0,1364,"[2, 1, 4, 2, 3, 4, 1, 3]","[2, 4]",172,1363,6,0,305,10,305,"B",TRUE,FALSE,TRUE,653,1.46627565982405,1,2,NA
5,"B",1,106,0,1272,"[2, 1, 4, 2, 3, 4, 1, 3]","[2, 1, 4, 2, 3, 4, 1, 3]",173,1363,6,1,1272,5,334,"B",TRUE,FALSE,TRUE,654,6.28930817610063,0,8,117
10,"B",0,106,0,1607,"[2, 1, 4, 2, 3, 4, 1, 3]","[2, 1, 4, 2, 3, 1]",174,1363,6,0,938,10,269,"B",FALSE,FALSE,FALSE,655,3.73366521468575,1,6,NA
30,"A",0,106,0,1377,"[3, 2, 4, 1, 2, 4, 3, 1]","[3, 2, 4, 1, 3]",175,1240,6,0,658,30,266,"A",FALSE,FALSE,TRUE,656,3.63108206245461,1,5,NA
5,"A",0,106,1,1746,"[3, 2, 4, 1, 2, 4, 3, 1]","[3, 2, 4, 1, 2, 4]",176,1240,6,0,1158,5,300,"A",TRUE,TRUE,FALSE,657,3.43642611683849,0,6,NA
10,"A",0,106,0,1625,"[3, 2, 4, 1, 2, 4, 3, 1]","[3, 2, 4, 1, 2, 4, 1]",177,1240,6,0,964,10,252,"A",TRUE,TRUE,FALSE,658,4.30769230769231,1,7,NA
5,"B",1,106,0,1174,"[2, 1, 4, 2, 3, 4, 1, 3]","[2, 1, 4, 2, 3, 4, 1, 3]",178,1363,6,1,1174,5,302,"B",TRUE,TRUE,TRUE,659,6.81431005110733,0,8,129
30,"B",1,106,0,1164,"[2, 1, 4, 2, 3, 4, 1, 3]","[2, 1, 4, 2, 3, 4, 1, 3]",179,1363,6,1,1164,30,237,"B",FALSE,FALSE,TRUE,660,6.87285223367698,0,8,103
30,"B",1,106,0,1169,"[2, 1, 4, 2, 3, 4, 1, 3]","[2, 1, 4, 2, 3, 4, 1, 3]",180,1363,7,1,1169,30,248,"B",TRUE,FALSE,FALSE,661,6.84345594525235,0,8,114
5,"B",0,106,1,1866,"[2, 1, 4, 2, 3, 4, 1, 3]","[2, 1, 4, 2, 3, 4, 1]",181,1363,7,0,1018,5,262,"B",FALSE,FALSE,FALSE,662,3.7513397642015,0,7,NA
30,"A",1,106,0,1233,"[3, 2, 4, 1, 2, 4, 3, 1]","[3, 2, 4, 1, 2, 4, 3, 1]",182,1240,7,1,1233,30,254,"A",TRUE,FALSE,FALSE,663,6.4882400648824,0,8,66
5,"A",0,106,0,1439,"[3, 2, 4, 1, 2, 4, 3, 1]","[3, 2, 4, 1, 3]",183,1240,7,0,709,5,232,"A",FALSE,TRUE,FALSE,664,3.47463516330785,1,5,NA
10,"A",0,106,1,1743,"[3, 2, 4, 1, 2, 4, 3, 1]","[3, 2, 4, 1, 2, 4, 3]",184,1240,7,0,1185,10,260,"A",FALSE,FALSE,TRUE,665,4.01606425702811,0,7,NA
5,"B",1,106,0,1127,"[2, 1, 4, 2, 3, 4, 1, 3]","[2, 1, 4, 2, 3, 4, 1, 3]",185,1363,7,1,1127,5,217,"B",TRUE,TRUE,TRUE,666,7.09849157054126,0,8,123
10,"A",0,106,1,1743,"[3, 2, 4, 1, 2, 4, 3, 1]","[3, 2, 4, 1]",186,1240,7,0,1045,10,251,"A",FALSE,FALSE,FALSE,667,2.29489386115892,0,4,NA
5,"B",1,106,0,1110,"[2, 1, 4, 2, 3, 4, 1, 3]","[2, 1, 4, 2, 3, 4, 1, 3]",187,1363,7,1,1110,5,250,"B",FALSE,FALSE,TRUE,668,7.20720720720721,0,8,119
10,"B",1,106,0,1321,"[2, 1, 4, 2, 3, 4, 1, 3]","[2, 1, 4, 2, 3, 4, 1, 3]",188,1363,7,1,1321,10,232,"B",TRUE,TRUE,FALSE,669,6.0560181680545,0,8,127
30,"B",0,106,0,1605,"[2, 1, 4, 2, 3, 4, 1, 3]","[2, 1, 4, 2, 3, 1]",189,1363,7,0,925,30,284,"B",TRUE,TRUE,TRUE,670,3.73831775700935,1,6,NA
30,"A",0,106,0,1150,"[3, 2, 4, 1, 2, 4, 3, 1]","[3, 2, 4, 1, 1]",190,1240,7,0,632,30,215,"A",TRUE,TRUE,FALSE,671,4.34782608695652,1,5,NA
5,"B",0,106,1,1866,"[2, 1, 4, 2, 3, 4, 1, 3]","[2, 1, 4, 2, 3, 4, 1]",191,1363,7,0,1040,5,307,"B",FALSE,FALSE,TRUE,672,3.7513397642015,0,7,NA
30,"A",1,106,0,1123,"[3, 2, 4, 1, 2, 4, 3, 1]","[3, 2, 4, 1, 2, 4, 3, 1]",192,1240,7,1,1123,30,240,"A",TRUE,TRUE,FALSE,673,7.12377560106857,0,8,110
5,"A",1,106,0,1151,"[3, 2, 4, 1, 2, 4, 3, 1]","[3, 2, 4, 1, 2, 4, 3, 1]",193,1240,7,1,1151,5,239,"A",FALSE,FALSE,FALSE,674,6.95047784535187,0,8,109
30,"B",1,106,0,1284,"[2, 1, 4, 2, 3, 4, 1, 3]","[2, 1, 4, 2, 3, 4, 1, 3]",194,1363,7,1,1284,30,284,"B",FALSE,TRUE,TRUE,675,6.23052959501558,0,8,160
10,"B",0,106,1,1866,"[2, 1, 4, 2, 3, 4, 1, 3]","[2, 1, 4]",195,1363,7,0,1025,10,362,"B",TRUE,FALSE,FALSE,676,1.60771704180064,0,3,NA
10,"A",0,106,0,1488,"[3, 2, 4, 1, 2, 4, 3, 1]","[3, 2, 4, 1, 3]",196,1240,7,0,769,10,342,"A",FALSE,FALSE,FALSE,677,3.36021505376344,1,5,NA
10,"B",0,106,0,NA,"[2, 1, 4, 2, 3, 4, 1, 3]","[1]",197,1363,7,0,0,10,386,"B",FALSE,TRUE,TRUE,678,NA,1,1,NA
5,"A",1,106,0,1147,"[3, 2, 4, 1, 2, 4, 3, 1]","[3, 2, 4, 1, 2, 4, 3, 1]",198,1240,7,1,1147,5,252,"A",FALSE,TRUE,TRUE,679,6.97471665213601,0,8,67
30,"A",0,106,0,1373,"[3, 2, 4, 1, 2, 4, 3, 1]","[3, 2, 4, 1, 2, 3]",199,1240,7,0,806,30,239,"A",TRUE,TRUE,FALSE,680,4.36999271667881,1,6,NA
5,"A",1,106,0,1106,"[3, 2, 4, 1, 2, 4, 3, 1]","[3, 2, 4, 1, 2, 4, 3, 1]",200,1240,7,1,1106,5,230,"A",TRUE,FALSE,FALSE,681,7.23327305605787,0,8,55
30,"B",0,106,0,1532,"[2, 1, 4, 2, 3, 4, 1, 3]","[2, 1, 4, 2, 3, 1]",201,1363,7,0,867,30,288,"B",FALSE,FALSE,FALSE,682,3.91644908616188,1,6,NA
10,"A",0,106,0,1611,"[3, 2, 4, 1, 2, 4, 3, 1]","[3, 2, 4, 1, 3]",202,1240,7,0,815,10,345,"A",TRUE,FALSE,TRUE,683,3.10366232153942,1,5,NA
30,"A",0,106,1,1746,"[3, 2, 4, 1, 2, 4, 3, 1]","[3, 2, 4, 1, 2, 4]",203,1240,7,0,1074,30,271,"A",TRUE,TRUE,TRUE,684,3.43642611683849,0,6,NA
10,"A",1,106,0,1195,"[3, 2, 4, 1, 2, 4, 3, 1]","[3, 2, 4, 1, 2, 4, 3, 1]",204,1240,7,1,1195,10,286,"A",TRUE,TRUE,FALSE,685,6.69456066945607,0,8,102
5,"B",1,106,0,1212,"[2, 1, 4, 2, 3, 4, 1, 3]","[2, 1, 4, 2, 3, 4, 1, 3]",205,1363,7,1,1212,5,252,"B",TRUE,TRUE,TRUE,686,6.6006600660066,0,8,155
10,"B",1,106,0,1243,"[2, 1, 4, 2, 3, 4, 1, 3]","[2, 1, 4, 2, 3, 4, 1, 3]",206,1363,7,1,1243,10,283,"B",TRUE,TRUE,TRUE,687,6.43604183427192,0,8,148
5,"A",0,106,1,1743,"[3, 2, 4, 1, 2, 4, 3, 1]","[3, 2, 4, 1, 2, 4, 3]",207,1240,7,0,1118,5,267,"A",FALSE,TRUE,TRUE,688,4.01606425702811,0,7,NA
10,"B",1,106,0,1335,"[2, 1, 4, 2, 3, 4, 1, 3]","[2, 1, 4, 2, 3, 4, 1, 3]",208,1363,7,1,1335,10,296,"B",FALSE,TRUE,FALSE,689,5.99250936329588,0,8,135
30,"B",0,106,0,1623,"[2, 1, 4, 2, 3, 4, 1, 3]","[2, 1, 4, 2, 3, 1]",209,1363,7,0,944,30,326,"B",TRUE,FALSE,FALSE,690,3.69685767097967,1,6,NA
5,"B",1,106,0,1266,"[2, 1, 4, 2, 3, 4, 1, 3]","[2, 1, 4, 2, 3, 4, 1, 3]",210,1363,8,1,1266,5,276,"B",TRUE,TRUE,TRUE,691,6.31911532385466,0,8,153
10,"B",0,106,0,1506,"[2, 1, 4, 2, 3, 4, 1, 3]","[2, 1, 4, 2, 3, 4, 1, 1]",211,1363,8,0,987,10,231,"B",TRUE,FALSE,TRUE,692,5.31208499335989,1,8,NA
10,"A",0,106,0,1529,"[3, 2, 4, 1, 2, 4, 3, 1]","[3, 2, 4, 1, 4]",212,1240,8,0,693,10,258,"A",TRUE,FALSE,TRUE,693,3.27011118378025,1,5,NA
30,"A",1,106,0,1183,"[3, 2, 4, 1, 2, 4, 3, 1]","[3, 2, 4, 1, 2, 4, 3, 1]",213,1240,8,1,1183,30,272,"A",TRUE,FALSE,TRUE,694,6.76246830092984,0,8,81
30,"B",0,106,0,1542,"[2, 1, 4, 2, 3, 4, 1, 3]","[2, 1, 4, 2, 3, 1]",214,1363,8,0,847,30,284,"B",FALSE,FALSE,FALSE,695,3.89105058365759,1,6,NA
5,"B",1,106,0,1239,"[2, 1, 4, 2, 3, 4, 1, 3]","[2, 1, 4, 2, 3, 4, 1, 3]",215,1363,8,1,1239,5,261,"B",FALSE,FALSE,TRUE,696,6.45682001614205,0,8,185
30,"A",0,106,1,1743,"[3, 2, 4, 1, 2, 4, 3, 1]","[3, 2, 4, 1, 2, 4, 3]",216,1240,8,0,1169,30,273,"A",FALSE,FALSE,TRUE,697,4.01606425702811,0,7,NA
10,"A",1,106,0,1158,"[3, 2, 4, 1, 2, 4, 3, 1]","[3, 2, 4, 1, 2, 4, 3, 1]",217,1240,8,1,1158,10,265,"A",TRUE,TRUE,FALSE,698,6.90846286701209,0,8,96
5,"A",1,106,0,1195,"[3, 2, 4, 1, 2, 4, 3, 1]","[3, 2, 4, 1, 2, 4, 3, 1]",218,1240,8,1,1195,5,268,"A",FALSE,FALSE,TRUE,699,6.69456066945607,0,8,128
5,"A",1,106,0,1196,"[3, 2, 4, 1, 2, 4, 3, 1]","[3, 2, 4, 1, 2, 4, 3, 1]",219,1240,8,1,1196,5,310,"A",TRUE,FALSE,FALSE,700,6.68896321070234,0,8,90
